ax, ay, az, gx, gy, gz, mx, my, mz, phi, theta, psi
-4.963225,2.050085,9.182529,-0.283555,0.35449,-0.217182,1.033446,0.021203,-0.461581,0.223947743,0.468907339,1.479677562
-4.939458,2.161079,9.150695,-0.394175,0.367712,-0.275796,1.033446,0.021203,-0.461581,0.221500022,0.471005121,1.478624604
-4.911361,2.260823,9.14472,-0.513698,0.360174,-0.320931,1.03523,0.013823,-0.451293,0.218322422,0.473115155,1.477630883
-4.876638,2.262844,9.141781,-0.569933,0.320809,-0.305463,1.03523,0.013823,-0.451293,0.214884297,0.475009973,1.476341835
-4.999484,2.112614,9.098668,-0.559326,0.24181,-0.250342,1.036556,0.031442,-0.463768,0.211575116,0.476466171,1.474902915
-5.03621,2.023098,9.001899,-0.492225,0.148157,-0.196513,1.036556,0.031442,-0.463768,0.208697294,0.477395629,1.473995186
-5.021377,1.99829,8.794722,-0.410862,0.04859,-0.163082,1.025324,0.037705,-0.446243,0.206244058,0.477808103,1.473096306
-4.871293,1.967731,8.542002,-0.324128,-0.031531,-0.143246,1.025324,0.037705,-0.446243,0.204243683,0.477799743,1.472270504
-4.667514,1.944932,8.363569,-0.252407,-0.073905,-0.154556,1.027983,0.034928,-0.448721,0.202540782,0.477599222,1.471437562
-4.589188,1.87985,8.38238,-0.181897,-0.08431,-0.180227,1.027983,0.034928,-0.448721,0.201130765,0.477366901,1.470348389
-4.230031,1.749868,8.604418,-0.128883,-0.099248,-0.201066,1.034134,0.02865,-0.469135,0.199915701,0.477085851,1.469243229
-4.627869,1.941876,8.569841,-0.074353,-0.156434,-0.24078,1.034134,0.02865,-0.469135,0.198854313,0.476557662,1.467740657
-4.907246,1.943113,8.876513,-0.000879,-0.171821,-0.248957,1.037244,0.038889,-0.471322,0.198121414,0.475968874,1.466015607
-4.983119,1.959361,9.152078,0.091723,-0.159123,-0.207581,1.037244,0.038889,-0.471322,0.19797519,0.475393038,1.464694811
-4.950017,1.992475,9.120602,0.164097,-0.132944,-0.144565,1.030864,0.042685,-0.44839,0.198353648,0.474889789,1.463772527
-4.825902,1.929665,9.039482,0.191536,-0.105115,-0.072685,1.030864,0.042685,-0.44839,0.19907494,0.474446336,1.463255316
-4.628087,1.773059,8.954329,0.164939,-0.096048,-0.031881,1.03142,0.042202,-0.458695,0.199760122,0.474014087,1.462919601
-4.583954,1.641862,8.699863,0.093525,-0.105581,-0.031562,1.03142,0.042202,-0.458695,0.200094684,0.473528065,1.462627974
-4.567854,1.522858,8.497011,0.00679,-0.107027,-0.047329,1.02849,0.037169,-0.456392,0.199945965,0.473055762,1.462368566
-4.533966,1.347733,8.380149,-0.063913,-0.113526,-0.080807,1.02849,0.037169,-0.456392,0.199366253,0.472579566,1.461797302
-4.547009,1.284941,8.35327,-0.110025,-0.119767,-0.111261,1.029032,0.052789,-0.456043,0.198464284,0.472112358,1.460729509
-4.560308,1.260859,8.320786,-0.128572,-0.126402,-0.138082,1.029032,0.052789,-0.456043,0.197412548,0.471628483,1.459830001
-4.532688,1.26706,8.286847,-0.133223,-0.13632,-0.153596,1.028441,0.039893,-0.453757,0.196285641,0.47111382,1.459144976
-4.53268,1.367704,8.22368,-0.131596,-0.132646,-0.15258,1.028441,0.039893,-0.453757,0.195181057,0.470611654,1.458160505
-4.477788,1.446731,8.390844,-0.104203,-0.114636,-0.134869,1.035092,0.043907,-0.476515,0.194255299,0.470187888,1.457181393
-4.468372,1.470203,8.372255,-0.059738,-0.093501,-0.101621,1.035092,0.043907,-0.476515,0.193657576,0.469827093,1.456521099
-4.445985,1.540455,8.427622,-0.023934,-0.066525,-0.066983,1.03362,0.03446,-0.456137,0.193329785,0.469568278,1.456452141
-4.406703,1.506184,8.53364,0.000453,-0.045565,-0.04089,1.03362,0.03446,-0.456137,0.193208066,0.469383989,1.45617809
-4.508797,1.475505,8.631735,0.027762,-0.018242,-0.016605,1.024089,0.052654,-0.461508,0.193282033,0.469322326,1.455585829
-4.561231,1.400231,8.690235,0.05118,-0.001424,-0.000924,1.024089,0.052654,-0.461508,0.193534931,0.469316252,1.455579197
-4.489584,1.34163,8.657317,0.053618,-0.005217,0.000326,1.02722,0.038739,-0.479677,0.193790587,0.46929571,1.455734619
-4.429523,1.287261,8.721618,0.053421,0.012515,0.008849,1.02722,0.038739,-0.479677,0.19408581,0.469348611,1.455796822
-4.330482,1.199415,8.737712,0.044907,0.017871,-0.003717,1.029726,0.052185,-0.468924,0.194295668,0.469449631,1.455509332
-4.220832,1.197639,8.795955,0.004487,-0.042077,-0.050941,1.029726,0.052185,-0.468924,0.194170755,0.469292394,1.455183583
-4.060659,1.29226,8.734503,-0.102075,-0.247288,-0.193523,1.026054,0.05048,-0.451105,0.193047094,0.468270363,1.453978084
-4.163167,1.416363,8.361564,-0.231769,-0.425755,-0.351459,1.026054,0.05048,-0.451105,0.190812705,0.466515905,1.451590961
-4.148674,1.407798,8.160666,-0.276013,-0.496067,-0.427378,1.030976,0.051099,-0.492112,0.188130395,0.46448956,1.448638474
-4.12293,1.388171,8.0487,-0.238545,-0.507872,-0.436099,1.030976,0.051099,-0.492112,0.185631169,0.462399562,1.445715866
-4.135688,1.509182,8.095331,-0.180071,-0.505622,-0.429046,1.02427,0.05786,-0.461392,0.183440135,0.460312636,1.443005229
-4.151437,1.566144,8.235517,-0.138921,-0.522809,-0.433151,1.02427,0.05786,-0.461392,0.181457841,0.458134953,1.440100162
-3.609034,1.608506,7.597703,-0.088497,-0.418735,-0.395659,1.022625,0.065119,-0.474256,0.179859468,0.456437881,1.437413698
-2.844594,1.327068,7.441731,0.207024,0.454199,-0.302565,1.022625,0.065119,-0.474256,0.180361844,0.458943163,1.436208076
-5.321365,2.487047,9.765707,0.196498,0.447373,-0.228453,1.024173,0.063308,-0.456123,0.180975624,0.461353045,1.435552321
-5.146421,2.220654,9.68264,0.238435,0.343237,-0.167469,1.024173,0.063308,-0.456123,0.181911732,0.463192186,1.434978142
-4.351954,2.237274,9.648349,0.215099,0.331252,-0.087052,1.009386,0.068229,-0.469827,0.182910252,0.464907776,1.434587136
-4.33522,2.227814,9.061676,0.145425,0.245165,-0.087623,1.009386,0.068229,-0.469827,0.183533161,0.466192932,1.434354989
-4.413581,2.145018,8.753356,0.117382,0.253429,-0.074622,1.019001,0.06069,-0.45907,0.184042413,0.467510255,1.434374153
-4.225121,1.908003,8.869165,0.124857,0.262924,-0.050602,1.019001,0.06069,-0.45907,0.184662791,0.46884901,1.434365479
-4.065434,1.7044,8.908756,0.108201,0.218544,-0.092526,1.022569,0.075894,-0.466294,0.185062471,0.470015711,1.433773096
-4.144416,1.594849,8.8753,0.096356,0.131547,-0.175641,1.022569,0.075894,-0.466294,0.185166877,0.470823869,1.432940522
-4.242142,1.644427,8.767108,0.062244,0.054242,-0.256722,1.021798,0.057792,-0.464125,0.184852613,0.471327606,1.431885679
-4.323323,1.705621,8.622174,0.016283,-0.018189,-0.319155,1.021798,0.057792,-0.464125,0.18412584,0.471530972,1.430106193
-4.372998,1.87109,8.578157,-0.041067,-0.08143,-0.340084,1.025277,0.070393,-0.471406,0.183019266,0.471446201,1.428015951
-4.394598,1.874817,8.5821,-0.101158,-0.148394,-0.353862,1.025277,0.070393,-0.471406,0.181558355,0.471037287,1.42591213
-4.535388,1.87738,8.563527,-0.160532,-0.229894,-0.369821,1.019778,0.070741,-0.466567,0.179715984,0.470241976,1.423695177
-4.635333,1.955754,8.550953,-0.223073,-0.30561,-0.383857,1.019778,0.070741,-0.466567,0.177504215,0.469079237,1.421272642
-4.615822,1.860043,8.394344,-0.229906,-0.33249,-0.328556,1.007408,0.086505,-0.469576,0.175378281,0.467737043,1.418918453
-4.646886,1.7971,8.230009,-0.233998,-0.259996,-0.275411,1.007408,0.086505,-0.469576,0.173410351,0.466695744,1.417146856
-4.65331,1.724632,8.290772,-0.253403,-0.143265,-0.229235,1.009657,0.076039,-0.469652,0.1715059,0.466189075,1.415952457
-4.664339,1.713136,8.572951,-0.264404,-0.045324,-0.187112,1.009657,0.076039,-0.469652,0.169700618,0.46612462,1.414877281
-4.675283,1.612986,8.832129,-0.295304,0.039226,-0.176534,1.01762,0.08381,-0.466432,0.167794525,0.466470824,1.413932674
-4.543774,1.63251,9.046955,-0.333211,0.063553,-0.168668,1.01762,0.08381,-0.466432,0.165736048,0.46692419,1.413060515
-4.501232,1.483914,9.144962,-0.340505,0.049128,-0.157812,1.021341,0.082791,-0.486887,0.163653154,0.467300361,1.412220418
-4.448123,1.478602,9.158397,-0.380988,0.023933,-0.182856,1.021341,0.082791,-0.486887,0.161302596,0.467566367,1.411231444
-4.536376,1.448223,9.225806,-0.414035,0.003477,-0.203506,1.018446,0.091137,-0.476563,0.158718198,0.46775022,1.410057605
-4.505481,1.493712,9.421212,-0.496229,-0.051829,-0.251758,1.018446,0.091137,-0.476563,0.155588577,0.467691315,1.408619278
-4.446577,1.355357,9.505237,-0.560996,-0.118072,-0.271857,1.022966,0.099685,-0.458041,0.152051963,0.467319804,1.407016996
-4.447594,1.253891,9.335004,-0.569764,-0.232605,-0.247684,1.022966,0.099685,-0.458041,0.148498244,0.466355318,1.405450824
-4.645704,1.200114,9.190636,-0.59435,-0.309283,-0.274748,1.016795,0.106447,-0.4841,0.14472121,0.465030769,1.403561975
-4.740469,1.222207,8.860503,-0.585917,-0.34794,-0.261468,1.016795,0.106447,-0.4841,0.141019575,0.463494966,1.401837729
-4.752274,1.073572,8.710182,-0.50592,-0.347042,-0.217499,1.010616,0.091296,-0.477032,0.137826808,0.461928463,1.400684991
-4.698351,0.892584,8.589089,-0.3705,-0.314454,-0.172631,1.010616,0.091296,-0.477032,0.135442931,0.460488426,1.399490958
-4.699712,0.943569,8.647537,-0.249502,-0.278194,-0.164773,1.015864,0.112619,-0.463372,0.133689433,0.459226151,1.39822802
-4.746841,0.889171,8.612146,-0.141233,-0.22981,-0.160605,1.015864,0.112619,-0.463372,0.132514896,0.458193858,1.397170263
-4.656369,0.942354,8.939806,-0.109085,-0.206025,-0.191555,1.003369,0.112402,-0.47446,0.131426142,0.457303809,1.395905404
-4.672159,0.750898,8.977565,-0.02356,-0.210726,-0.138335,1.003369,0.112402,-0.47446,0.130903555,0.456349707,1.39498778
-4.67661,0.621174,9.049476,0.017405,-0.208634,-0.141598,1.012817,0.113518,-0.502272,0.130570162,0.455413268,1.393977478
-4.527051,0.613707,9.046173,0.051596,-0.206611,-0.129136,1.012817,0.113518,-0.502272,0.130449228,0.454473059,1.393115128
-4.527767,0.416173,9.155904,0.081446,-0.214519,-0.126108,0.998752,0.109301,-0.487713,0.130474221,0.453495482,1.392367202
-4.590753,0.411697,9.152735,0.052105,-0.201479,-0.180212,0.998752,0.109301,-0.487713,0.130236053,0.452613793,1.391227885
-4.602871,0.600415,9.414954,-0.0452,-0.209845,-0.263549,1.013644,0.120845,-0.512403,0.12929724,0.45175078,1.389415657
-4.55329,0.578241,9.418691,-0.113678,-0.26377,-0.268681,1.013644,0.120845,-0.512403,0.12800135,0.450615199,1.387747174
-4.657193,0.467008,9.218975,-0.14342,-0.294952,-0.279622,1.00466,0.116643,-0.494954,0.126513806,0.449333201,1.386169465
-4.638347,0.641998,9.175474,-0.209332,-0.290966,-0.335558,1.00466,0.116643,-0.494954,0.124577973,0.448099934,1.384119802
-4.449485,0.79158,9.210293,-0.266327,-0.302283,-0.340342,1.00507,0.124332,-0.497356,0.122334508,0.4468149,1.382012752
-4.397769,0.565883,9.101414,-0.247048,-0.351434,-0.278593,1.00507,0.124332,-0.497356,0.120336385,0.445239268,1.380244349
-4.503142,0.500505,8.888341,-0.191389,-0.366026,-0.254871,0.997559,0.129577,-0.500285,0.118660082,0.44358,1.378526874
-4.534037,0.58402,8.8505,-0.124109,-0.347126,-0.2469,0.997559,0.129577,-0.500285,0.117361312,0.442001803,1.376943947
-4.6845,0.674106,8.928053,-0.067998,-0.316013,-0.246327,1.008826,0.136691,-0.509791,0.116342773,0.44058278,1.375268972
-4.709224,0.763801,8.911073,-0.033852,-0.268298,-0.22119,1.008826,0.136691,-0.509791,0.115583292,0.439378293,1.373883249
-4.513248,0.835546,9.028874,-0.029576,-0.234271,-0.178284,0.994261,0.122182,-0.492887,0.114946945,0.438318825,1.37322992
-4.396004,0.801918,8.948976,-0.023585,-0.196692,-0.120301,0.994261,0.122182,-0.492887,0.114496545,0.437410713,1.372445813
-4.413726,0.765929,8.871824,-0.022736,-0.157639,-0.082562,1.000579,0.137213,-0.502531,0.114133935,0.436683468,1.37161446
-4.470186,0.725034,8.861039,-0.019912,-0.134946,-0.042934,1.000579,0.137213,-0.502531,0.113899101,0.436037557,1.371294436
-4.490561,0.590943,8.821554,-0.011726,-0.119915,-0.018765,0.99499,0.134957,-0.497749,0.113751726,0.435459015,1.371116762
-4.475222,0.470771,8.795794,0.005117,-0.104861,-0.009373,0.99499,0.134957,-0.497749,0.113727989,0.434943444,1.37099979
-4.460644,0.482763,8.746991,0.018189,-0.104998,-0.010554,0.996011,0.131388,-0.518418,0.113752633,0.434434803,1.370866516
-4.392334,0.474631,8.672302,0.024644,-0.108869,-0.002278,0.996011,0.131388,-0.518418,0.113841942,0.433895304,1.3707859
-4.275837,0.441197,8.612717,0.031509,-0.110305,0.008541,1.000169,0.129524,-0.500129,0.113976611,0.433348056,1.370943608
-4.184133,0.397745,8.49442,0.069362,-0.120868,0.01608,1.000169,0.129524,-0.500129,0.114328522,0.432738516,1.370955773
-4.075352,0.351185,8.493212,0.14789,-0.119318,0.030804,0.997837,0.129335,-0.505438,0.115091406,0.432135837,1.371025306
-4.128735,0.363231,8.430757,0.247561,-0.115281,0.054269,0.997837,0.129335,-0.505438,0.116422744,0.431531987,1.371248779
-4.215544,0.366234,8.513166,0.344389,-0.101399,0.090196,0.995365,0.129268,-0.508171,0.118306391,0.43098439,1.371558836
-4.356324,0.421961,8.681231,0.415813,-0.090304,0.128492,0.995365,0.129268,-0.508171,0.120653825,0.430459534,1.372201607
-4.375539,0.387259,8.977941,0.456141,-0.078807,0.161877,1.005764,0.123728,-0.510238,0.123264717,0.429977282,1.373107171
-4.312705,0.372359,9.107746,0.483309,-0.0991,0.189678,1.005764,0.123728,-0.510238,0.126084227,0.429367726,1.374074503
-4.239066,0.425839,9.070449,0.49274,-0.128081,0.210187,0.994039,0.111649,-0.495696,0.12897212,0.428603795,1.375484817
-4.193026,0.458291,8.914864,0.486434,-0.135431,0.221,0.994039,0.111649,-0.495696,0.131864167,0.427788726,1.376592351
-4.161338,0.565574,8.825559,0.463193,-0.115106,0.233229,0.987131,0.113687,-0.511565,0.134650464,0.427074956,1.377409113
-4.106787,0.579355,8.826145,0.446392,-0.067649,0.248108,0.987131,0.113687,-0.511565,0.137420512,0.42657162,1.37870893
-4.155216,0.674595,8.87451,0.411948,-0.024531,0.25401,0.998988,0.103733,-0.495558,0.140026814,0.426280185,1.380374725
-4.072914,0.713476,8.937784,0.358028,0.027174,0.267171,0.998988,0.103733,-0.495558,0.142426206,0.42622669,1.381848255
-4.05357,0.74448,9.002789,0.28603,0.06067,0.274799,1.005313,0.110712,-0.510529,0.144470319,0.426343069,1.382921423
-4.037613,0.792527,8.96883,0.189758,0.084466,0.26749,1.005313,0.110712,-0.510529,0.146048115,0.426567396,1.384442112
-4.047342,0.867646,8.873448,0.086671,0.128512,0.238365,1.001966,0.106042,-0.500496,0.147039689,0.427037605,1.385813924
-4.531054,1.170242,8.950518,-0.023973,0.152864,0.205785,1.001966,0.106042,-0.500496,0.147434378,0.427642729,1.387055499
-4.548024,1.113238,9.058029,-0.075611,0.100426,0.352726,1.014885,0.097846,-0.502465,0.147866435,0.427886569,1.389290569
-3.99389,0.584536,8.664145,-0.088068,0.075069,0.423327,1.014885,0.097846,-0.502465,0.148406178,0.427945421,1.391652367
-3.809912,0.663399,8.259614,-0.138125,0.10697,0.401897,1.00064,0.088423,-0.488021,0.148639319,0.428183205,1.394220987
-4.046299,0.558057,8.202184,-0.229109,0.153561,0.390745,1.00064,0.088423,-0.488021,0.148428099,0.428653449,1.396470089
-4.083343,0.423994,8.319307,-0.361886,0.195536,0.353771,0.999738,0.092354,-0.516401,0.147459249,0.42937352,1.398035999
-4.026589,0.449011,8.435953,-0.522951,0.224369,0.319265,0.999738,0.092354,-0.516401,0.145643495,0.430250269,1.399953436
-4.054553,0.38016,8.56615,-0.676552,0.242159,0.299719,1.012324,0.095175,-0.505256,0.142998325,0.431243606,1.401627766
-3.977542,0.299079,8.651817,-0.811236,0.257051,0.289992,1.012324,0.095175,-0.505256,0.139686998,0.432311801,1.403407671
-3.907636,0.217034,8.7211,-0.91837,0.250883,0.277228,1.001605,0.095629,-0.500729,0.135784789,0.433373904,1.405041107
-3.888157,0.165703,8.830951,-1.003644,0.229717,0.246837,1.001605,0.095629,-0.500729,0.131404133,0.434347885,1.406557799
-3.900066,0.186433,8.961134,-1.094159,0.184102,0.18124,1.001001,0.098835,-0.487789,0.126380899,0.435153076,1.407703835
-3.988932,0.276404,8.975739,-1.168444,0.102453,0.089281,1.001001,0.098835,-0.487789,0.120774096,0.435606425,1.408262062
-3.939718,0.523329,8.949915,-1.241119,0.0249,0.013726,1.019689,0.098102,-0.494423,0.114583742,0.435727883,1.408675164
-3.732694,0.626377,8.860062,-1.273765,-0.048281,-0.025362,1.019689,0.098102,-0.494423,0.108143753,0.435502089,1.408506547
-3.756893,0.740737,8.683992,-1.288232,-0.119014,-0.06319,1.006263,0.104056,-0.484783,0.101502476,0.434951054,1.40816188
-3.78178,0.853553,8.538125,-1.272173,-0.156823,-0.082505,1.006263,0.104056,-0.484783,0.094915356,0.434211191,1.407624493
-3.861673,0.918056,8.461084,-1.263813,-0.185907,-0.096194,1.007312,0.121917,-0.492105,0.088305931,0.433342837,1.406426009
-3.896585,0.983723,8.428563,-1.266682,-0.217082,-0.118716,1.007312,0.121917,-0.492105,0.081656678,0.432311748,1.405673004
-3.780834,1.044819,8.400217,-1.271242,-0.233771,-0.128585,1.007118,0.132812,-0.481567,0.074936808,0.431207077,1.404605438
-3.802438,0.998882,8.444873,-1.265723,-0.245256,-0.13686,1.007118,0.132812,-0.481567,0.068254341,0.430032906,1.403757784
-3.855881,0.987527,8.484397,-1.262973,-0.277631,-0.140833,0.997323,0.135145,-0.49244,0.061553408,0.428700643,1.402950342
-3.771407,0.892401,8.461092,-1.268979,-0.302197,-0.137609,0.997323,0.135145,-0.49244,0.054855076,0.427232262,1.40209876
-3.717885,0.825279,8.358391,-1.286311,-0.307179,-0.158923,1.004966,0.137831,-0.48676,0.048006244,0.425744473,1.401420368
-3.615548,0.761483,8.330996,-1.309703,-0.284518,-0.152331,1.004966,0.137831,-0.48676,0.041084632,0.424357232,1.400515606
-3.79299,0.600675,8.385159,-1.341767,-0.273827,-0.155823,1.006945,0.149519,-0.514809,0.033978137,0.423027588,1.399410463
-3.871037,0.650285,8.479883,-1.418187,-0.267617,-0.194881,1.006945,0.149519,-0.514809,0.026431295,0.421719567,1.398298339
-3.756965,0.686716,8.50912,-1.53416,-0.214255,-0.245367,0.997678,0.153609,-0.48688,0.018180666,0.420681532,1.397143402
-3.968982,0.940508,8.7116,-1.686111,-0.118897,-0.374926,0.997678,0.153609,-0.48688,0.008908513,0.420112503,1.395081329
-4.182539,1.286009,9.508793,-1.762995,-0.160587,-0.288995,0.996436,0.176608,-0.496818,-0.000575139,0.41932672,1.393072874
-4.139968,0.487052,9.54587,-1.711034,-0.349863,-0.122387,0.996436,0.176608,-0.496818,-0.009398567,0.417574391,1.392412702
-3.889863,0.527531,9.027932,-1.64839,-0.451569,-0.090213,1.000823,0.177226,-0.481048,-0.017843085,0.415315795,1.392192494
-3.600243,0.452366,8.758485,-1.619029,-0.432466,-0.068952,1.000823,0.177226,-0.481048,-0.02606893,0.413146454,1.39186781
-3.429732,0.063316,8.683724,-1.622202,-0.388633,-0.024907,0.989147,0.192387,-0.496939,-0.034227859,0.411209522,1.391548572
-3.552256,-0.255144,8.65548,-1.629698,-0.347193,-0.012969,0.989147,0.192387,-0.496939,-0.042375635,0.409472377,1.391550387
-3.697582,-0.339701,8.658066,-1.655081,-0.300732,0.005494,0.991993,0.186765,-0.504628,-0.050623244,0.407975129,1.392034943
-3.608594,-0.439462,8.715705,-1.707429,-0.254324,-0.005434,0.991993,0.186765,-0.504628,-0.059142025,0.406703952,1.392081352
-3.519573,-0.547457,8.728385,-1.770749,-0.207766,-0.011308,0.994034,0.203297,-0.483511,-0.068009192,0.405671328,1.391961639
-3.439773,-0.697658,8.787896,-1.834407,-0.172393,-0.016746,0.994034,0.203297,-0.483511,-0.077190239,0.404805592,1.391938793
-3.420017,-0.850313,8.848073,-1.88144,-0.152703,-0.028954,0.991466,0.208678,-0.480975,-0.086648496,0.40403845,1.391906504
-3.581864,-0.945126,8.979131,-1.929734,-0.132227,-0.041457,0.991466,0.208678,-0.480975,-0.096359565,0.403361157,1.391747732
-3.722398,-0.991851,9.131235,-1.999681,-0.126576,-0.047757,0.984497,0.229542,-0.483555,-0.106450382,0.40271603,1.391236821
-3.68363,-1.108014,9.125064,-2.071952,-0.139939,-0.045399,0.984497,0.229542,-0.483555,-0.116872987,0.401995419,1.391076391
-3.695596,-1.197949,9.018656,-2.128297,-0.140081,-0.03876,0.989662,0.240211,-0.475281,-0.127576415,0.401282905,1.390881263
-3.707646,-1.256725,8.996342,-2.155752,-0.123044,-0.034228,0.989662,0.240211,-0.475281,-0.138392522,0.40065045,1.390785619
-3.776018,-1.340937,9.127035,-2.155932,-0.122519,-0.023515,0.990627,0.247417,-0.487988,-0.149199273,0.40003194,1.390852011
-3.88535,-1.405439,9.20677,-2.146385,-0.134222,-0.019817,0.990627,0.247417,-0.487988,-0.159928934,0.3993536,1.390857858
-3.700167,-1.446506,9.359457,-2.129133,-0.134298,-0.009588,0.994688,0.251,-0.46443,-0.170562182,0.398687355,1.391071765
-3.58188,-1.580694,9.38893,-2.089797,-0.130674,0.015598,0.994688,0.251,-0.46443,-0.180930786,0.39805771,1.391278988
-3.578406,-1.707088,9.498046,-2.040254,-0.120895,0.035094,0.985254,0.263746,-0.47507,-0.191027765,0.397501299,1.391534697
-3.725076,-1.777986,9.608481,-1.994258,-0.133476,0.04376,0.985254,0.263746,-0.47507,-0.200854531,0.396889316,1.391908302
-3.76985,-1.806121,9.577675,-1.955053,-0.160828,0.059889,0.997514,0.269532,-0.456137,-0.210452275,0.396167291,1.392441204
-3.841192,-1.790301,9.401779,-1.93372,-0.191449,0.068509,0.997514,0.269532,-0.456137,-0.219895697,0.395305289,1.393025366
-3.938673,-1.806734,9.216518,-1.930478,-0.204766,0.074251,0.992933,0.279809,-0.46137,-0.229315942,0.394394402,1.393638099
-3.983988,-1.89771,9.120534,-1.944912,-0.218142,0.102953,0.992933,0.279809,-0.46137,-0.238727267,0.393452814,1.39445425
-3.985271,-1.96385,8.930513,-2.013705,-0.218039,0.119025,0.992926,0.28786,-0.456043,-0.248460362,0.392543008,1.395345136
-3.984912,-2.17124,8.907858,-2.113564,-0.197873,0.150837,0.992926,0.28786,-0.456043,-0.258623628,0.391774469,1.396403714
-4.009148,-2.457146,8.866099,-2.197289,-0.205063,0.17261,0.990864,0.295482,-0.461178,-0.269168144,0.391014256,1.397625654
-4.054113,-2.669484,8.862517,-2.271366,-0.197656,0.165868,0.990864,0.295482,-0.461178,-0.280085898,0.390287937,1.398778776
-3.84904,-2.810034,8.862246,-2.340788,-0.180941,0.160356,0.992822,0.301359,-0.445447,-0.291381098,0.389650665,1.3999031
-3.808932,-3.000489,8.98702,-2.38931,-0.173207,0.147428,0.992822,0.301359,-0.445447,-0.30293445,0.389038455,1.400939006
-3.796085,-3.085203,9.08398,-2.423888,-0.168814,0.104145,0.992718,0.314858,-0.434851,-0.314758572,0.388398286,1.401651729
-3.680286,-3.144738,9.084764,-2.422582,-0.192006,0.067946,0.992718,0.314858,-0.434851,-0.326616065,0.387594317,1.402326927
-3.565699,-3.082249,8.845084,-2.383833,-0.220028,0.036979,0.984652,0.320586,-0.427475,-0.338329463,0.386619166,1.402921055
-3.545789,-3.047835,8.851322,-2.305077,-0.226897,0.017687,0.984652,0.320586,-0.427475,-0.349665503,0.385580991,1.403423902
-3.488835,-3.120096,8.825938,-2.188617,-0.222307,0.025697,0.984458,0.331482,-0.416937,-0.360414956,0.384588143,1.403918441
-3.57003,-3.246284,8.812771,-2.053976,-0.222829,0.022818,0.984458,0.331482,-0.416937,-0.370480885,0.383588366,1.40446281
-3.547644,-3.166109,8.697652,-1.941512,-0.214818,0.018956,0.985701,0.338446,-0.434796,-0.380004453,0.382626811,1.405090378
-3.469026,-3.267036,8.652774,-1.846273,-0.207931,0.033785,0.985701,0.338446,-0.434796,-0.38901615,0.381726448,1.40567941
-3.632912,-3.400245,8.500805,-1.772943,-0.209004,0.024018,0.982848,0.352119,-0.42178,-0.397686984,0.380812122,1.406120193
-3.596126,-3.474001,8.335896,-1.703229,-0.195828,0.025594,0.982848,0.352119,-0.42178,-0.406002923,0.379961046,1.406659447
-3.691469,-3.52022,8.186622,-1.631859,-0.180797,-0.000271,0.985264,0.362962,-0.411086,-0.414029783,0.37913636,1.406937793
-3.704268,-3.522884,8.052988,-1.578466,-0.16265,-0.010222,0.985264,0.362962,-0.411086,-0.421809382,0.378372377,1.407242737
-3.720761,-3.564539,7.965126,-1.550522,-0.138053,-0.030381,0.985445,0.368168,-0.41097,-0.429513443,0.377685084,1.407412435
-3.629463,-3.58556,7.946106,-1.515419,-0.11313,-0.023339,0.985445,0.368168,-0.41097,-0.437038416,0.377122721,1.407553964
-3.785884,-3.687675,7.887465,-1.480529,-0.096372,-0.021727,0.982376,0.363256,-0.40609,-0.444407199,0.376643872,1.40780187
-3.798327,-3.667594,7.89514,-1.454405,-0.089283,-0.026599,0.982376,0.363256,-0.40609,-0.451650197,0.376183925,1.407880899
-3.831298,-3.647433,7.791272,-1.454144,-0.074772,-0.03064,0.976545,0.37462,-0.388135,-0.458920247,0.375786828,1.407785639
-3.915568,-3.702461,7.648778,-1.459001,-0.055013,-0.013997,0.976545,0.37462,-0.388135,-0.466191571,0.37550946,1.407850234
-3.851457,-3.653253,7.703822,-1.458087,-0.02335,0.002989,0.976086,0.369655,-0.383099,-0.473463959,0.375416765,1.408019024
-3.753956,-3.919469,7.861197,-1.434744,-0.023565,0.060606,0.976086,0.369655,-0.383099,-0.480510276,0.375451236,1.408366502
-3.803023,-4.111682,7.985229,-1.413895,-0.030948,0.055653,0.978961,0.385463,-0.377441,-0.487463321,0.375450485,1.408602244
-3.84186,-4.263229,8.207567,-1.371006,-0.046466,0.060394,0.978961,0.385463,-0.377441,-0.494170258,0.375387933,1.409006183
-3.703838,-4.356299,8.638591,-1.312981,-0.076301,0.060867,0.986695,0.390751,-0.371703,-0.500566124,0.37520394,1.409460894
-3.790715,-4.543734,8.842279,-1.225063,-0.126654,0.032951,0.986695,0.390751,-0.371703,-0.506514384,0.374728791,1.409944333
-3.704369,-4.464931,8.868485,-1.111883,-0.194839,0.027156,0.985091,0.403338,-0.381874,-0.511848025,0.373950269,1.410554204
-3.608723,-4.320976,8.601439,-0.971093,-0.228237,0.026324,0.985091,0.403338,-0.381874,-0.516438679,0.37302137,1.411280051
-3.734808,-4.101204,8.264486,-0.823733,-0.257318,0.029916,0.989166,0.390819,-0.36897,-0.520263325,0.371982776,1.412187222
-3.850461,-3.880049,7.888996,-0.682898,-0.269845,0.017857,0.989166,0.390819,-0.36897,-0.523385756,0.370857649,1.412992011
-3.731614,-3.612354,7.600915,-0.542803,-0.223996,0.031522,0.982481,0.403391,-0.38203,-0.525834593,0.369973692,1.413707648
-3.807542,-3.546826,7.383082,-0.372917,-0.171168,0.060422,0.982481,0.403391,-0.38203,-0.527431308,0.369385673,1.414449065
-3.899353,-3.429226,7.329201,-0.204164,-0.086563,0.078796,0.97415,0.393258,-0.380156,-0.528240059,0.369216568,1.415116234
-3.995511,-3.327861,7.400328,-0.022096,0.009196,0.105425,0.97415,0.393258,-0.380156,-0.528183284,0.369521966,1.415579567
-4.134462,-3.209176,7.639531,0.147877,0.108581,0.135264,0.981648,0.404115,-0.366572,-0.527327601,0.370341014,1.415748393
-4.13122,-3.143012,7.855014,0.318848,0.174653,0.17655,0.981648,0.404115,-0.366572,-0.525607194,0.371539602,1.416096447
-4.228276,-3.135953,8.009105,0.457679,0.220505,0.206692,0.984314,0.393287,-0.374377,-0.523186037,0.373019572,1.416552222
-4.054467,-3.196985,8.176209,0.571707,0.245807,0.236987,0.984314,0.393287,-0.374377,-0.520164784,0.374675629,1.41699784
-3.854122,-3.315491,8.130791,0.696445,0.229989,0.275933,0.989673,0.39306,-0.376641,-0.516434822,0.376367656,1.417654241
-3.747286,-3.527059,8.107325,0.813494,0.192373,0.303065,0.989673,0.39306,-0.376641,-0.512032157,0.377950478,1.41856443
-3.760204,-3.694635,7.961592,0.938158,0.126854,0.32536,0.981904,0.374393,-0.390399,-0.506897396,0.379305745,1.419937429
-3.751512,-3.803256,7.837296,1.008865,0.08938,0.336852,0.981904,0.374393,-0.390399,-0.501350406,0.380510633,1.421292922
-3.645091,-3.930946,7.835839,1.034009,0.070188,0.363358,0.994962,0.366077,-0.394944,-0.495606455,0.381696672,1.422901174
-3.611397,-4.223095,7.778265,1.040228,0.019872,0.391427,0.994962,0.366077,-0.394944,-0.489731081,0.382709906,1.424708987
-3.658081,-4.401812,7.717493,1.015877,-0.012481,0.384883,0.993761,0.364439,-0.374391,-0.483954684,0.383566654,1.426371012
-3.758832,-4.487893,7.727647,0.94955,-0.036207,0.358446,0.993761,0.364439,-0.374391,-0.478531368,0.384235796,1.428174759
-3.722758,-4.54558,7.807039,0.843246,-0.065084,0.334938,1.000321,0.36585,-0.397208,-0.473652368,0.384724191,1.429917121
-3.721992,-4.666795,7.858406,0.692032,-0.1248,0.301771,1.000321,0.36585,-0.397208,-0.469533075,0.3848538,1.431673133
-3.907461,-4.677845,7.85372,0.568407,-0.167326,0.257407,0.989248,0.34784,-0.39824,-0.466072853,0.384696353,1.43343836
-4.048833,-4.624766,7.901473,0.474911,-0.205336,0.219028,0.989248,0.34784,-0.39824,-0.463116037,0.384269201,1.434990743
-4.180593,-4.481202,7.935239,0.415136,-0.234399,0.201208,1.000238,0.355196,-0.402593,-0.460467394,0.383679524,1.43642338
-4.250177,-4.320373,7.944351,0.385894,-0.252883,0.197379,1.000238,0.355196,-0.402593,-0.457955166,0.382983539,1.437981523
-4.344912,-4.117737,7.928289,0.389631,-0.261315,0.216891,0.990845,0.343304,-0.382742,-0.455385482,0.382300853,1.439580158
-4.417527,-3.964992,7.912729,0.426651,-0.25823,0.255537,0.990845,0.343304,-0.382742,-0.452563493,0.381700826,1.4414278
-4.429885,-3.817901,7.947172,0.468918,-0.253623,0.300061,0.9872,0.339359,-0.414029,-0.449456422,0.381224368,1.443620562
-4.426446,-3.739727,7.900105,0.521251,-0.264263,0.323335,0.9872,0.339359,-0.414029,-0.446037338,0.380733233,1.445806623
-4.454277,-3.587937,7.882113,0.581464,-0.273082,0.346661,0.999376,0.334491,-0.400482,-0.442271422,0.380259009,1.448040593
-4.643497,-3.454638,7.832273,0.666514,-0.264649,0.387731,0.999376,0.334491,-0.400482,-0.438012974,0.379887899,1.450536345
-4.508211,-3.439538,7.723154,0.786278,-0.218157,0.454607,1.002271,0.326145,-0.410805,-0.433076168,0.379872104,1.453290947
-3.966731,-3.45106,7.643564,0.935471,-0.145062,0.519141,1.002271,0.326145,-0.410805,-0.427335463,0.380295469,1.456157163
-3.755238,-3.40606,7.630036,1.082114,-0.080664,0.587778,1.007873,0.312298,-0.426241,-0.420786793,0.381150733,1.459383842
-3.91516,-3.53821,7.650208,1.216658,0.010495,0.627239,1.007873,0.312298,-0.426241,-0.413560813,0.382469452,1.462450614
-3.879321,-3.51808,7.855217,1.309279,0.091358,0.627867,1.002146,0.310164,-0.418883,-0.405929776,0.384156732,1.465100897
-3.762997,-3.550229,8.00144,1.362213,0.147267,0.604947,1.002146,0.310164,-0.418883,-0.39810726,0.386017882,1.46779354
-3.707709,-3.540531,8.163597,1.389711,0.156055,0.569273,0.999458,0.291511,-0.429752,-0.39021095,0.387845679,1.470452987
-3.531737,-3.566761,8.401384,1.407535,0.091549,0.541722,0.999458,0.291511,-0.429752,-0.382216693,0.389290027,1.472977851
-3.52666,-3.623373,8.217387,1.438333,-0.097888,0.531703,1.007893,0.288145,-0.442223,-0.373939239,0.389832336,1.475770571
-3.672049,-3.753797,7.883832,1.46,-0.202021,0.50583,1.007893,0.288145,-0.442223,-0.36552043,0.389804446,1.478714663
-3.771254,-3.627598,7.780324,1.454895,-0.245651,0.446059,0.999062,0.26772,-0.438005,-0.357213741,0.389458661,1.481523248
-3.735033,-3.485801,7.825142,1.426485,-0.294249,0.381129,0.999062,0.26772,-0.438005,-0.349139601,0.388737368,1.484005684
-3.700525,-3.333269,7.930857,1.382451,-0.3596,0.339291,1.010197,0.266904,-0.450261,-0.341330505,0.387636275,1.486252325
-3.665784,-3.217539,7.916289,1.3454,-0.421057,0.324276,1.010197,0.266904,-0.450261,-0.333696118,0.386186708,1.48865711
-3.659575,-3.085713,7.882133,1.318187,-0.473324,0.323394,1.001498,0.25441,-0.443292,-0.326178772,0.384488101,1.491050307
-3.649404,-3.023091,7.861639,1.322561,-0.516257,0.334937,1.001498,0.25441,-0.443292,-0.318595034,0.382570402,1.493645036
-3.594974,-2.935806,7.90623,1.332692,-0.535405,0.338894,1.002012,0.2486,-0.45629,-0.310958133,0.380566222,1.496196011
-3.57626,-2.800766,7.971135,1.349875,-0.544546,0.349131,1.002012,0.2486,-0.45629,-0.303216774,0.378498564,1.498873539
-3.577942,-2.655123,8.082331,1.369689,-0.565616,0.361265,0.99634,0.23569,-0.456894,-0.295359072,0.376345124,1.501614981
-3.469655,-2.513418,8.115423,1.388009,-0.583749,0.362961,0.99634,0.23569,-0.456894,-0.287404119,0.374070784,1.504384418
-3.418214,-2.369008,8.20866,1.404981,-0.627517,0.377633,0.992515,0.226538,-0.488297,-0.279331968,0.371601666,1.50738225
-3.410281,-2.251163,8.251328,1.433541,-0.685458,0.380641,0.992515,0.226538,-0.488297,-0.271091969,0.36882057,1.51034596
-3.358048,-2.188709,8.242208,1.494301,-0.728375,0.385762,0.986704,0.213749,-0.486324,-0.262540689,0.365832827,1.51334037
-3.312511,-2.049102,8.264435,1.568636,-0.772875,0.395422,0.986704,0.213749,-0.486324,-0.253592784,0.362601034,1.516441647
-3.294727,-1.917899,8.274956,1.65221,-0.801334,0.412377,0.981629,0.205683,-0.494541,-0.244210989,0.359243543,1.51949367
-3.265397,-1.843779,8.296571,1.730813,-0.815225,0.430206,0.981629,0.205683,-0.494541,-0.234415325,0.355793479,1.522755832
-3.249505,-1.752668,8.339697,1.796806,-0.812142,0.435203,0.976748,0.186722,-0.513295,-0.224311016,0.352349158,1.526163833
-3.189327,-1.645195,8.41258,1.83725,-0.780407,0.424207,0.976748,0.186722,-0.513295,-0.214057132,0.349001685,1.529271655
-3.135571,-1.522669,8.531071,1.834534,-0.739092,0.409029,0.984731,0.17034,-0.526057,-0.203886728,0.34582665,1.532332842
-3.124632,-1.442413,8.724093,1.816789,-0.718469,0.393532,0.984731,0.17034,-0.526057,-0.193856753,0.34269387,1.535135876
-3.120918,-1.391452,8.987017,1.791751,-0.710622,0.367626,0.990007,0.159459,-0.533705,-0.184025064,0.339566448,1.537699277
-3.034023,-1.405576,9.193897,1.764631,-0.719893,0.333072,0.990007,0.159459,-0.533705,-0.174400564,0.336321531,1.54011628
-2.476273,-1.128793,9.456738,1.723822,-0.653332,0.299891,0.980038,0.148534,-0.550022,-0.165079647,0.333371504,1.542228566
-1.276324,-0.461873,9.537395,1.564851,-0.568552,0.34761,0.980038,0.148534,-0.550022,-0.156506743,0.330843708,1.544524757
-2.893881,-1.014316,9.444324,1.314159,-0.315084,0.336928,0.981828,0.133103,-0.545062,-0.149286138,0.329557469,1.54658676
-4.076905,-1.228424,10.243788,1.135225,-0.098114,0.129133,0.981828,0.133103,-0.545062,-0.143367236,0.329166306,1.547337391
-3.134166,-0.613855,11.159267,0.869331,0.015598,-0.133948,0.971297,0.130712,-0.545745,-0.139253877,0.329164403,1.5465444
-3.213527,-0.13738,11.320782,0.528104,0.114448,-0.302543,0.971297,0.130712,-0.545745,-0.13715243,0.329522824,1.544877663
-3.512798,0.07952,11.488515,0.261887,0.176144,-0.400815,0.988028,0.124101,-0.56811,-0.136563346,0.330133795,1.542872244
-3.690131,0.068872,11.535037,0.100874,0.075992,-0.435107,0.988028,0.124101,-0.56811,-0.136815372,0.330213783,1.540539191
-3.456841,-0.157455,11.209663,0.072726,-0.09853,-0.421943,0.982287,0.138068,-0.550098,-0.137144139,0.329453046,1.538172018
-3.083618,-0.441741,10.666198,0.096019,-0.253048,-0.372575,0.982287,0.138068,-0.550098,-0.137234443,0.327944959,1.536405063
-2.837912,-0.553634,10.040318,0.043612,-0.365019,-0.351379,0.979586,0.135518,-0.550313,-0.137519089,0.3259087,1.534886539
-2.896459,-0.667021,9.529678,-0.078603,-0.436004,-0.341573,0.979586,0.135518,-0.550313,-0.138380653,0.323514561,1.533417913
-2.949018,-0.873575,9.194182,-0.187067,-0.464522,-0.308812,0.970291,0.148143,-0.563529,-0.139716756,0.321014026,1.532004667
-2.815361,-1.018676,9.032039,-0.254299,-0.469092,-0.273199,0.970291,0.148143,-0.563529,-0.141327346,0.318500385,1.530925948
-2.787043,-1.005223,8.819586,-0.26182,-0.454726,-0.254648,0.972679,0.137556,-0.566182,-0.142939892,0.316079455,1.530186976
-2.73666,-0.965994,8.680493,-0.226668,-0.427507,-0.245472,0.972679,0.137556,-0.566182,-0.144369282,0.313788256,1.52923125
-2.67568,-0.958985,8.634809,-0.152141,-0.386734,-0.253526,0.965578,0.15049,-0.571513,-0.145442258,0.311705082,1.528069262
-2.645349,-0.911074,8.770733,-0.06383,-0.374036,-0.267026,0.965578,0.15049,-0.571513,-0.146098345,0.309660829,1.526967156
-2.744501,-0.887441,8.835927,0.020465,-0.3631,-0.257922,0.959941,0.150958,-0.564097,-0.1463144,0.307688956,1.525883585
-2.802841,-0.939101,8.898973,0.105813,-0.335817,-0.219443,0.959941,0.150958,-0.564097,-0.146051745,0.305867983,1.525001461
-2.849485,-1.023941,9.056215,0.183667,-0.319753,-0.168246,0.952429,0.156204,-0.567026,-0.145318288,0.304176758,1.524274391
-2.998038,-1.054503,9.204151,0.230712,-0.336123,-0.103942,0.952429,0.156204,-0.567026,-0.144249814,0.302438776,1.523989571
-3.00626,-1.166602,9.169819,0.264241,-0.371073,-0.057504,0.954866,0.142893,-0.572313,-0.14292846,0.300571395,1.524205119
-2.995971,-1.346559,9.09627,0.309901,-0.326272,-0.000215,0.954866,0.142893,-0.572313,-0.141307868,0.298956354,1.524445835
-2.99866,-1.421182,9.111322,0.321523,-0.319699,0.038263,0.947716,0.158551,-0.575009,-0.13957027,0.297415175,1.524567659
-2.958174,-1.609041,8.968163,0.368938,-0.221099,0.079195,0.947716,0.158551,-0.575009,-0.1375589,0.296375011,1.525137439
-3.178211,-1.55078,9.213479,0.373811,-0.177019,0.102897,0.947222,0.140208,-0.577993,-0.135492272,0.295578634,1.526030821
-2.997333,-1.6008,9.17349,0.341226,-0.142076,0.1043,0.947222,0.140208,-0.577993,-0.133600002,0.294944661,1.526670555
-2.952159,-1.65466,9.231686,0.304107,-0.06669,0.111685,0.950339,0.142396,-0.585508,-0.131894536,0.294700908,1.527260162
-2.968439,-1.619853,9.344617,0.202686,-0.075038,0.10371,0.950339,0.142396,-0.585508,-0.130710277,0.294396871,1.527848687
-2.849117,-1.755276,9.180132,0.126646,-0.000328,0.094841,0.960412,0.139821,-0.579787,-0.129931458,0.294469495,1.528331079
-3.004133,-1.787835,9.364256,0.054879,0.068965,0.084776,0.960412,0.139821,-0.579787,-0.129543053,0.294866295,1.528723674
-3.003005,-1.790143,9.495106,-0.049036,0.066878,0.06615,0.955511,0.145013,-0.58256,-0.129700028,0.295254143,1.528910564
-3.0412,-1.847527,9.454202,-0.125279,0.124058,0.05354,0.955511,0.145013,-0.58256,-0.130270105,0.295903946,1.529103964
-3.075801,-1.855958,9.518834,-0.199387,0.164372,0.050189,0.955053,0.140048,-0.577524,-0.131221973,0.296763591,1.529317295
-3.03177,-1.802816,9.620443,-0.264424,0.201723,0.043329,0.955053,0.140048,-0.577524,-0.132518962,0.297791975,1.529403183
-3.157883,-1.721659,9.776916,-0.328092,0.222221,0.05633,0.952297,0.148273,-0.569777,-0.134118784,0.298944398,1.529410077
-3.211307,-1.642947,9.787502,-0.389822,0.221022,0.06242,0.952297,0.148273,-0.569777,-0.136018367,0.300081498,1.529577978
-3.237097,-1.583183,9.76451,-0.433309,0.228881,0.075562,0.966369,0.144439,-0.589664,-0.138116148,0.301278533,1.529924199
-3.300956,-1.488506,9.776643,-0.464169,0.216936,0.09346,0.966369,0.144439,-0.589664,-0.140339804,0.302417605,1.530251204
-3.347431,-1.481136,9.812984,-0.467731,0.203818,0.120347,0.952117,0.143067,-0.569893,-0.142536493,0.30352404,1.530750543
-3.331084,-1.511315,9.825193,-0.439749,0.194141,0.135522,0.952117,0.143067,-0.569893,-0.144568407,0.304581727,1.531307862
-3.256685,-1.53272,9.778434,-0.391996,0.188311,0.160112,0.949826,0.148206,-0.572509,-0.146321765,0.30564294,1.53193255
-3.163569,-1.562052,9.678812,-0.342372,0.180067,0.182008,0.949826,0.148206,-0.572509,-0.147790792,0.306666925,1.532738299
-3.106241,-1.550014,9.571385,-0.293983,0.181227,0.199045,0.956289,0.155064,-0.590056,-0.148991073,0.307723967,1.533544153
-3.12246,-1.572747,9.456981,-0.250343,0.185519,0.218071,0.956289,0.155064,-0.590056,-0.149943465,0.308803611,1.534530701
-3.145104,-1.583613,9.377022,-0.207646,0.190613,0.236912,0.975143,0.145675,-0.558122,-0.150652522,0.309935893,1.535658917
-3.157371,-1.623737,9.316951,-0.17581,0.183512,0.250333,0.975143,0.145675,-0.558122,-0.151178809,0.311031228,1.536813592
-3.218846,-1.624388,9.257037,-0.155076,0.183683,0.241911,0.978351,0.150466,-0.565578,-0.151614164,0.312135358,1.53784208
-3.243697,-1.606934,9.236029,-0.141802,0.176278,0.212937,0.978351,0.150466,-0.565578,-0.15202608,0.313167651,1.538808033
-3.278529,-1.595287,9.250848,-0.137655,0.163827,0.18751,0.975935,0.139623,-0.576272,-0.152453284,0.314131073,1.539855441
-3.265285,-1.550808,9.271858,-0.142136,0.137507,0.153084,0.975935,0.139623,-0.576272,-0.15295189,0.314927066,1.540540989
-3.165608,-1.537903,9.249256,-0.138071,0.120403,0.122483,0.974963,0.140468,-0.558238,-0.153475349,0.31562916,1.541046471
-3.114966,-1.510122,9.200665,-0.135671,0.108867,0.095322,0.974963,0.140468,-0.558238,-0.154027031,0.316240113,1.54145425
-3.167791,-1.455022,9.224164,-0.123816,0.096858,0.072125,0.96448,0.135354,-0.561556,-0.154553666,0.31678661,1.541853966
-3.186371,-1.383714,9.248586,-0.113933,0.080938,0.066137,0.96448,0.135354,-0.561556,-0.155036617,0.317237481,1.542132136
-3.191921,-1.3345,9.277623,-0.118193,0.065906,0.066893,0.980177,0.148413,-0.552598,-0.155537404,0.317630442,1.542160899
-3.222169,-1.389426,9.248912,-0.125095,0.043602,0.085328,0.980177,0.148413,-0.552598,-0.156035399,0.317912034,1.542568958
-3.25904,-1.431068,9.27284,-0.134336,0.032505,0.09245,0.971888,0.143608,-0.548031,-0.156565194,0.318157986,1.543038905
-3.229513,-1.454546,9.334902,-0.159928,0.008382,0.090482,0.971888,0.143608,-0.548031,-0.157219815,0.318270088,1.543502465
-3.122403,-1.530874,9.325891,-0.180882,-0.010119,0.084566,0.973596,0.147486,-0.576254,-0.15798413,0.318299969,1.543963546
-3.058197,-1.559233,9.245755,-0.190874,-0.023792,0.078001,0.973596,0.147486,-0.576254,-0.158805447,0.318244048,1.544388761
-3.048529,-1.596025,9.216852,-0.211575,-0.029225,0.07185,0.969458,0.148867,-0.548071,-0.159739705,0.318171163,1.544672901
-3.099591,-1.549245,9.158136,-0.223276,-0.041265,0.076929,0.969458,0.148867,-0.548071,-0.160720231,0.318028884,1.545107313
-3.129652,-1.514933,9.059802,-0.226536,-0.029978,0.079745,0.976962,0.151673,-0.539815,-0.161716326,0.317959332,1.54543657
-3.102048,-1.487447,9.045644,-0.235114,-0.01063,0.086495,0.976962,0.151673,-0.539815,-0.162748619,0.317976768,1.545894911
-3.055059,-1.467383,8.999058,-0.247493,0.001719,0.091704,0.974546,0.140831,-0.550509,-0.163836763,0.318071487,1.546587213
-3.048863,-1.503702,8.977793,-0.253503,0.014164,0.101027,0.974546,0.140831,-0.550509,-0.164944,0.318224047,1.547099642
-3.064189,-1.546484,8.98421,-0.255081,0.030331,0.104027,0.974407,0.140951,-0.547933,-0.16605862,0.318472494,1.547653313
-3.064647,-1.518225,9.006514,-0.268412,0.043262,0.084621,0.974407,0.140951,-0.547933,-0.167274906,0.318756023,1.548054861
-3.049837,-1.484324,9.037697,-0.277947,0.049343,0.066565,0.969652,0.137971,-0.558609,-0.168569609,0.319067547,1.548455083
-3.075987,-1.383086,9.080046,-0.282341,0.048408,0.050965,0.969652,0.137971,-0.558609,-0.169911785,0.319349086,1.54867667
-3.094089,-1.329803,9.120057,-0.266513,0.048639,0.043171,0.977289,0.148708,-0.547602,-0.171188389,0.319640242,1.548684838
-3.102821,-1.286076,9.209969,-0.233143,0.035079,0.051442,0.977289,0.148708,-0.547602,-0.172280128,0.319857047,1.548920196
-3.125762,-1.251523,9.208909,-0.207701,0.024295,0.052154,0.969645,0.146022,-0.553282,-0.173239658,0.320034635,1.54920821
-3.082264,-1.20129,9.198112,-0.191507,0.010947,0.058024,0.969645,0.146022,-0.553282,-0.174105621,0.320138709,1.549499279
-2.975538,-1.262997,9.055862,-0.163781,-0.013793,0.066138,0.980503,0.145448,-0.560385,-0.174811275,0.320141152,1.549896394
-2.983451,-1.295597,8.983536,-0.137874,-0.011855,0.066186,0.980503,0.145448,-0.560385,-0.175389207,0.320140471,1.550250556
-3.001649,-1.303004,8.916359,-0.102966,-0.0045,0.071665,0.977018,0.140898,-0.547776,-0.175784018,0.320193774,1.550672228
-3.001209,-1.356606,8.873917,-0.062874,-0.000473,0.084428,0.977018,0.140898,-0.547776,-0.175960436,0.32026535,1.551110533
-3.028924,-1.393871,8.882269,-0.050893,0.024571,0.086288,0.977622,0.137691,-0.560716,-0.176078874,0.320474318,1.551626348
-2.999829,-1.477243,8.930353,-0.047548,0.038701,0.102448,0.977622,0.137691,-0.560716,-0.176160416,0.320754601,1.552122004
-3.008476,-1.595,8.994193,-0.037986,0.047763,0.115838,0.969416,0.14354,-0.550764,-0.176173505,0.321105395,1.552548755
-3.037189,-1.730824,9.041747,-0.014969,0.044198,0.118804,0.969416,0.14354,-0.550764,-0.176066621,0.321427094,1.553124277
-3.103594,-1.776816,9.079907,0.002179,0.054904,0.112636,0.977337,0.145984,-0.550236,-0.175885805,0.321809757,1.553563036
-3.122231,-1.781618,9.19945,-0.009776,0.056237,0.105886,0.977337,0.145984,-0.550236,-0.175777228,0.322179261,1.554060664
-3.162457,-1.80489,9.274524,-0.032416,0.047438,0.093322,0.971936,0.140884,-0.550665,-0.17579798,0.322506895,1.554555465
-3.197835,-1.796995,9.325,-0.058277,0.021738,0.071806,0.971936,0.140884,-0.550665,-0.175977575,0.322676767,1.554908109
-3.167123,-1.791699,9.306083,-0.067003,0.011428,0.053892,0.980044,0.140483,-0.555349,-0.176225796,0.322792902,1.555202372
-3.110306,-1.714061,9.25254,-0.087998,0.010354,0.044668,0.980044,0.140483,-0.555349,-0.176595282,0.3228831,1.555424622
-3.111122,-1.682776,9.211258,-0.097663,0.008897,0.057562,0.971151,0.138884,-0.537842,-0.176990285,0.322990473,1.555692617
-3.149886,-1.7068,9.035784,-0.097957,-0.000334,0.059099,0.971151,0.138884,-0.537842,-0.177382618,0.323040948,1.555999638
-3.176204,-1.668157,8.998953,-0.098173,0.012946,0.052229,0.967084,0.143352,-0.556073,-0.177790205,0.323163819,1.556233705
-3.178,-1.636719,8.946108,-0.120627,0.024156,0.041139,0.967084,0.143352,-0.556073,-0.178332723,0.323319154,1.556424626
-3.198994,-1.612714,8.945231,-0.150526,0.035013,0.016209,0.958698,0.143994,-0.546237,-0.179068083,0.323519064,1.556438345
-3.204482,-1.528606,8.982098,-0.184477,0.044364,0.00184,0.958698,0.143994,-0.546237,-0.180000735,0.323738993,1.556406091
-3.169392,-1.558177,8.99132,-0.192096,0.049016,-0.002352,0.974588,0.146158,-0.547816,-0.180978696,0.323991193,1.556320657
-3.18187,-1.55512,9.045603,-0.186033,0.056753,-0.000279,0.974588,0.146158,-0.547816,-0.181926549,0.324270097,1.556265156
-3.142389,-1.597373,9.064,-0.151653,0.041416,0.004171,0.968493,0.141661,-0.535364,-0.18268891,0.324490183,1.556290829
-3.195266,-1.599351,9.159509,-0.130126,0.041874,-0.003439,0.968493,0.141661,-0.535364,-0.183358069,0.324692955,1.556232762
-3.192,-1.582441,9.22754,-0.110652,0.016825,-0.008057,0.967403,0.148437,-0.558533,-0.183928356,0.324781478,1.556154449
-3.13934,-1.697593,9.245445,-0.082661,-0.010309,-0.004276,0.967403,0.148437,-0.558533,-0.184345577,0.324726937,1.556142197
-3.156677,-1.708992,9.143504,-0.048928,-0.034217,-0.019105,0.977289,0.148708,-0.547602,-0.184609855,0.324554463,1.55603849
-3.161667,-1.661968,9.208933,-0.036903,-0.039374,-0.034535,0.977289,0.148708,-0.547602,-0.184839313,0.324329263,1.555897537
-3.145341,-1.729885,9.250405,-0.015765,-0.060361,-0.040975,0.982787,0.14836,-0.552442,-0.184965483,0.324007686,1.555757439
-3.174786,-1.711457,9.265339,0.007905,-0.088147,-0.040619,0.982787,0.14836,-0.552442,-0.184965762,0.323537163,1.555632351
-3.211505,-1.712697,9.284079,0.031291,-0.116741,-0.034026,0.977295,0.140657,-0.552929,-0.184827113,0.32294396,1.555696352
-3.284058,-1.697399,9.219636,0.053812,-0.143355,-0.034463,0.977295,0.140657,-0.552929,-0.18457069,0.322207762,1.555656524
-3.284881,-1.701183,9.161435,0.076538,-0.164051,-0.029754,0.975005,0.145796,-0.555545,-0.184185268,0.321387614,1.555603047
-3.286657,-1.663466,9.254003,0.082364,-0.182828,-0.028394,0.975005,0.145796,-0.555545,-0.183764277,0.320462973,1.555632159
-3.293811,-1.65729,9.243078,0.084465,-0.205312,-0.022192,0.974359,0.143675,-0.545298,-0.183314436,0.319446755,1.555690994
-3.254004,-1.692771,9.291226,0.085392,-0.235217,-0.016822,0.974359,0.143675,-0.545298,-0.182844122,0.318275063,1.555829347
-3.265922,-1.753511,9.293966,0.093142,-0.25911,-0.017318,0.961815,0.146182,-0.553751,-0.182327574,0.316998912,1.555952323
-3.282032,-1.790188,9.334606,0.105199,-0.304965,-0.036032,0.961815,0.146182,-0.553751,-0.181769243,0.315466705,1.556056327
-3.285494,-1.734694,9.398015,0.095496,-0.345827,-0.056117,0.974498,0.143554,-0.547875,-0.181278386,0.313728827,1.556092595
-3.233172,-1.826235,9.394889,0.072199,-0.390374,-0.081449,0.974498,0.143554,-0.547875,-0.180933265,0.311735573,1.556041055
-3.39671,-1.744495,9.261518,0.045834,-0.420648,-0.118557,0.959989,0.148235,-0.566731,-0.180768488,0.309573982,1.555802957
-3.375371,-1.72463,9.17148,0.005936,-0.422169,-0.143272,0.959989,0.148235,-0.566731,-0.18084242,0.307368775,1.555461728
-3.258253,-1.686988,9.238641,-0.0398,-0.422026,-0.150415,0.962925,0.145216,-0.574362,-0.181153421,0.305171282,1.555164236
-3.287571,-1.715442,9.352852,-0.083193,-0.439712,-0.167558,0.962925,0.145216,-0.574362,-0.181703479,0.30285769,1.554716332
-3.208035,-1.663826,9.618311,-0.123846,-0.48402,-0.197439,0.965849,0.1583,-0.571338,-0.1824879,0.300314901,1.553955141
-3.09018,-1.772527,9.674738,-0.174867,-0.553531,-0.233991,0.965849,0.1583,-0.571338,-0.183561487,0.297380565,1.553278442
-3.03034,-1.761727,9.604432,-0.241095,-0.618542,-0.286862,0.958031,0.142357,-0.582462,-0.185020671,0.294089257,1.552738367
-3.019691,-1.758125,9.520827,-0.322111,-0.668843,-0.326573,0.958031,0.142357,-0.582462,-0.186928054,0.290500824,1.551708308
-2.947255,-1.805867,9.458138,-0.409677,-0.713151,-0.345338,0.942683,0.155812,-0.580533,-0.189281126,0.286690751,1.55051075
-3.004628,-1.741167,9.528087,-0.528633,-0.766268,-0.33583,0.942683,0.155812,-0.580533,-0.192194186,0.282610588,1.549549719
-3.118283,-1.67219,9.454467,-0.707714,-0.809175,-0.28745,0.945661,0.158121,-0.585471,-0.195912263,0.27837818,1.548940459
-2.936357,-1.817098,9.468739,-0.925719,-0.837055,-0.234714,0.945661,0.158121,-0.585471,-0.200633345,0.274043775,1.548601394
-2.804269,-2.026741,9.29362,-1.166487,-0.86549,-0.189832,0.939018,0.17602,-0.595839,-0.206479992,0.269630412,1.548375304
-2.738705,-2.231625,9.177958,-1.411945,-0.886176,-0.162265,0.939018,0.17602,-0.595839,-0.213504107,0.265127792,1.548510183
-2.73009,-2.36186,8.980598,-1.678359,-0.872324,-0.148776,0.944877,0.186085,-0.600446,-0.22183647,0.260724359,1.54869072
-2.625871,-3.187723,9.021906,-1.868405,-0.802852,-0.166719,0.944877,0.186085,-0.600446,-0.231154944,0.256625469,1.548782908
-2.733458,-3.165272,8.895218,-2.060801,-0.820977,-0.309849,0.92957,0.204868,-0.595825,-0.241600918,0.252288952,1.548068632
-2.539977,-2.88903,9.04988,-2.311147,-0.797613,-0.336658,0.92957,0.204868,-0.595825,-0.25332409,0.248010119,1.547392404
-2.339438,-2.708694,9.041397,-2.61001,-0.762096,-0.284157,0.932591,0.212504,-0.59807,-0.266472045,0.243977202,1.547142734
-2.347948,-2.866883,9.083026,-2.880143,-0.718265,-0.213595,0.932591,0.212504,-0.59807,-0.28088704,0.240230956,1.547083393
-2.357317,-3.166542,9.188633,-3.094321,-0.702385,-0.187797,0.913403,0.232909,-0.61689,-0.296333804,0.236612049,1.547303828
-2.388816,-3.579673,9.242687,-3.226581,-0.7193,-0.221523,0.913403,0.232909,-0.61689,-0.312461665,0.232848996,1.547325628
-2.382714,-3.890474,9.177342,-3.306031,-0.720508,-0.313037,0.920929,0.265196,-0.58996,-0.329076037,0.228955269,1.546638229
-2.231154,-3.991238,9.260018,-3.351768,-0.740462,-0.443681,0.920929,0.265196,-0.58996,-0.34603506,0.224727277,1.545748338
-2.161732,-3.836349,9.050095,-3.385839,-0.789802,-0.529907,0.911586,0.280545,-0.600542,-0.363215931,0.220118454,1.544792019
-2.197478,-3.67289,8.729985,-3.439133,-0.773534,-0.571791,0.911586,0.280545,-0.600542,-0.380690018,0.215476295,1.543503756
-2.286675,-3.564521,8.593072,-3.480352,-0.714331,-0.573165,0.901493,0.307272,-0.59028,-0.398372934,0.211100369,1.542143115
-2.323081,-3.618223,8.598361,-3.54602,-0.678559,-0.534477,0.901493,0.307272,-0.59028,-0.416338436,0.206926534,1.541008877
-2.300804,-3.76767,8.508556,-3.684118,-0.640058,-0.477589,0.884951,0.341003,-0.600924,-0.43493662,0.203042634,1.540115512
-2.249509,-4.001873,8.382513,-3.827619,-0.586925,-0.436708,0.884951,0.341003,-0.600924,-0.454219427,0.19945427,1.539391707
-2.123652,-4.294468,8.370456,-3.958078,-0.507075,-0.408937,0.892206,0.365479,-0.574168,-0.474149141,0.196289847,1.538549498
-1.994817,-4.595469,8.169121,-4.037052,-0.456344,-0.393361,0.892206,0.365479,-0.574168,-0.494468273,0.193354866,1.537858137
-2.304887,-4.808444,7.389391,-4.154558,-0.084845,-0.369514,0.890312,0.394409,-0.568532,-0.515516324,0.192107147,1.536419706
-1.885535,-4.761321,8.899427,-4.354607,0.200185,-0.44433,0.890312,0.394409,-0.568532,-0.537760503,0.191855802,1.533950623
-1.690861,-4.765181,9.148289,-4.475211,-0.177936,-0.441658,0.880086,0.413206,-0.561022,-0.560407922,0.189959204,1.532802911
-1.837041,-5.440313,8.035379,-4.515798,-0.483396,-0.366644,0.880086,0.413206,-0.561022,-0.583031571,0.186934756,1.532564761
-1.988847,-5.795626,7.403077,-4.534582,-0.435741,-0.358796,0.872506,0.445328,-0.545335,-0.605753149,0.184142525,1.532271092
-2.022455,-5.74478,7.15458,-4.503841,-0.235377,-0.356371,0.872506,0.445328,-0.545335,-0.628415421,0.18215168,1.531485711
-1.988535,-5.975173,7.629601,-4.402017,-0.034184,-0.345796,0.881448,0.467873,-0.503022,-0.650661275,0.181002031,1.529935247
-1.898973,-6.113877,8.033434,-4.194359,-0.07484,-0.359595,0.881448,0.467873,-0.503022,-0.671849878,0.179602608,1.528726414
-1.915656,-6.285011,7.795073,-3.860398,-0.355844,-0.413032,0.882484,0.501836,-0.49969,-0.691237126,0.176937768,1.528188363
-2.119444,-6.468113,6.996302,-3.389551,-0.596239,-0.434926,0.882484,0.501836,-0.49969,-0.708139618,0.173256675,1.528448435
-2.353824,-6.374616,6.299305,-2.843666,-0.613338,-0.451863,0.873723,0.508167,-0.479432,-0.722303145,0.169477704,1.528822477
-2.343073,-6.143205,6.275032,-2.320713,-0.518967,-0.451679,0.873723,0.508167,-0.479432,-0.733899816,0.166038008,1.528863998
-2.271761,-5.877776,6.477834,-1.872108,-0.434118,-0.407067,0.866198,0.529514,-0.471707,-0.74326674,0.163083269,1.528670389
-2.203502,-5.761229,6.769267,-1.557362,-0.412567,-0.359841,0.866198,0.529514,-0.471707,-0.751040213,0.160347307,1.528753292
-2.08831,-5.767354,6.804862,-1.337803,-0.413463,-0.310493,0.863491,0.535015,-0.466594,-0.757681194,0.157797711,1.529062163
-2.029514,-5.857293,6.684745,-1.171219,-0.393952,-0.256267,0.863491,0.535015,-0.466594,-0.763469476,0.155487488,1.529497012
-1.937931,-6.031837,6.602572,-1.013979,-0.367819,-0.214654,0.8585,0.537604,-0.469425,-0.768457611,0.153437545,1.530180221
-1.898054,-6.248526,6.642002,-0.866239,-0.33994,-0.180396,0.8585,0.537604,-0.469425,-0.772706321,0.151589747,1.530723228
-1.816209,-6.327845,6.527553,-0.72297,-0.336952,-0.182541,0.856528,0.547828,-0.474502,-0.776238048,0.149768198,1.531308647
-1.67581,-6.42181,6.533375,-0.596239,-0.30859,-0.162892,0.856528,0.547828,-0.474502,-0.779143901,0.148097359,1.531816486
-1.621145,-6.545868,6.630732,-0.509834,-0.292352,-0.156185,0.848559,0.548108,-0.472395,-0.781619511,0.146530524,1.532333644
-1.583477,-6.647169,6.684952,-0.471342,-0.293392,-0.169657,0.848559,0.548108,-0.472395,-0.783912666,0.14489227,1.532771391
-1.536106,-6.750762,6.687587,-0.459838,-0.293992,-0.171991,0.852183,0.552537,-0.48758,-0.786144873,0.143264331,1.533480361
-1.538607,-6.86025,6.730099,-0.453204,-0.272488,-0.179043,0.852183,0.552537,-0.48758,-0.7883631,0.141668558,1.533817053
-1.533608,-6.966824,6.808355,-0.438359,-0.28458,-0.184792,0.856793,0.563689,-0.469,-0.790502979,0.140035785,1.533741951
-1.495012,-6.993029,6.766671,-0.440444,-0.291414,-0.184398,0.856793,0.563689,-0.469,-0.792650765,0.138355939,1.534134441
-1.396963,-6.974358,6.628839,-0.460477,-0.269308,-0.180406,0.851801,0.566278,-0.471831,-0.794904911,0.136790762,1.534444394
-1.319636,-7.011859,6.555791,-0.487108,-0.249507,-0.178066,0.851801,0.566278,-0.471831,-0.797303675,0.13528189,1.534715601
-1.244927,-6.967787,6.500313,-0.538129,-0.2133,-0.17946,0.852405,0.563071,-0.484771,-0.799970871,0.133913725,1.535260667
-1.191267,-6.940035,6.454872,-0.604687,-0.182468,-0.184881,0.852405,0.563071,-0.484771,-0.802992683,0.132615008,1.535273094
-1.185408,-6.862604,6.406059,-0.670364,-0.151164,-0.189847,0.845935,0.564264,-0.461897,-0.806358325,0.131430749,1.534879069
-1.234224,-6.911583,6.339186,-0.74022,-0.11125,-0.190065,0.845935,0.564264,-0.461897,-0.81009293,0.130359378,1.534622557
-1.249568,-6.938054,6.405033,-0.797808,-0.094067,-0.194763,0.84731,0.579159,-0.477006,-0.814121797,0.129349722,1.534414654
-1.260276,-7.006957,6.354127,-0.838504,-0.081127,-0.206965,0.84731,0.579159,-0.477006,-0.818367871,0.128317953,1.533997869
-1.258235,-7.017297,6.344066,-0.87479,-0.058753,-0.20878,0.841347,0.582592,-0.461802,-0.822804133,0.127376766,1.533337104
-1.258485,-7.024455,6.332058,-0.901708,-0.038492,-0.204719,0.841347,0.582592,-0.461802,-0.827383268,0.126494258,1.532779454
-1.286867,-6.983988,6.365828,-0.915222,-0.019403,-0.197008,0.850858,0.588552,-0.44045,-0.832034189,0.125726522,1.531796606
-1.326474,-7.017493,6.314589,-0.921955,-0.011231,-0.182462,0.850858,0.588552,-0.44045,-0.836715967,0.125012926,1.531220892
-1.352383,-7.07076,6.335009,-0.909822,0.006797,-0.175075,0.843395,0.591073,-0.446013,-0.841338211,0.124404487,1.53080285
-1.339015,-7.104546,6.37864,-0.882449,0.026137,-0.165436,0.843395,0.591073,-0.446013,-0.845831267,0.12387347,1.530150237
-1.335333,-7.153681,6.456621,-0.844092,0.036352,-0.155471,0.851122,0.604413,-0.434948,-0.850131132,0.123434083,1.529275163
-0.992849,-7.371277,5.838318,-0.848755,0.029226,-0.158903,0.851122,0.604413,-0.434948,-0.854453302,0.122932196,1.52863728
-1.308013,-7.284044,5.861524,-0.897385,-0.002528,-0.176721,0.826131,0.603978,-0.457123,-0.859005279,0.122273264,1.528660702
-1.287731,-7.227565,6.034303,-0.849331,0.070394,-0.179993,0.826131,0.603978,-0.457123,-0.863356632,0.12181988,1.527800883
-1.149761,-7.120733,6.607216,-0.712556,0.168492,-0.168707,0.830372,0.612768,-0.433448,-0.867064096,0.121748042,1.526284994
-1.16285,-7.016916,6.970934,-0.590008,0.166432,-0.1564,0.830372,0.612768,-0.433448,-0.870153662,0.121688527,1.525136061
-1.253022,-7.036713,6.908286,-0.589251,0.10513,-0.14566,0.837606,0.607764,-0.425366,-0.873202963,0.121490728,1.524266956
-1.23634,-7.146883,6.689566,-0.656357,0.0463,-0.154463,0.837606,0.607764,-0.425366,-0.876566755,0.12104642,1.52358914
-1.221929,-7.237893,6.427587,-0.696168,0.033638,-0.173391,0.83746,0.615936,-0.417463,-0.880127281,0.120508998,1.522756547
-1.184653,-7.284546,6.327567,-0.682035,0.045807,-0.178985,0.83746,0.615936,-0.417463,-0.883627575,0.119963791,1.522005357
-1.186832,-7.308625,6.25347,-0.646821,0.065587,-0.175722,0.847068,0.616448,-0.401379,-0.886955919,0.11951416,1.520979121
-1.21686,-7.367254,6.184797,-0.61014,0.073404,-0.165756,0.847068,0.616448,-0.401379,-0.890103447,0.119102349,1.520165832
-1.170405,-7.449951,6.144739,-0.591528,0.073387,-0.15353,0.842396,0.624122,-0.40667,-0.893147983,0.118756215,1.519470789
-1.149962,-7.498222,6.091766,-0.593284,0.066957,-0.145429,0.842396,0.624122,-0.40667,-0.896199728,0.118398562,1.518749497
-1.149703,-7.535533,6.06809,-0.608033,0.06595,-0.138382,0.8477,0.63467,-0.400972,-0.89931783,0.118085118,1.517938093
-1.144174,-7.602621,6.100145,-0.619008,0.067264,-0.126656,0.8477,0.63467,-0.400972,-0.902490717,0.11779754,1.517276595
-1.195854,-7.635014,6.103964,-0.623785,0.053777,-0.106659,0.839779,0.632226,-0.4015,-0.905668213,0.117564713,1.516879568
-1.235703,-7.667194,6.139625,-0.615599,0.04729,-0.090093,0.839779,0.632226,-0.4015,-0.908800941,0.117355483,1.516412552
-1.271596,-7.763579,6.272201,-0.599638,0.034655,-0.08454,0.831719,0.629903,-0.399451,-0.911840258,0.117148085,1.516143544
-1.173244,-7.752204,6.15883,-0.583417,-0.018367,-0.074527,0.831719,0.629903,-0.399451,-0.914775589,0.11679703,1.51598739
-1.157573,-7.733306,5.958299,-0.571052,0.024947,-0.064911,0.83181,0.632506,-0.399392,-0.917660148,0.116635831,1.515777723
-1.158695,-7.725426,6.241741,-0.565992,0.049338,-0.070591,0.83181,0.632506,-0.399392,-0.920538163,0.116504844,1.515364656
-1.181127,-7.773778,6.408955,-0.560108,-0.029447,-0.10522,0.824437,0.637631,-0.404898,-0.923355946,0.116016536,1.515301911
-1.150582,-7.680338,6.153085,-0.559719,-0.073633,-0.129035,0.824437,0.637631,-0.404898,-0.926165526,0.115279745,1.515206773
-1.216147,-7.771753,6.150717,-0.547329,-0.073525,-0.123095,0.836565,0.635486,-0.388716,-0.928905624,0.114588576,1.51500161
-1.275802,-7.883338,6.141657,-0.505255,-0.098844,-0.152458,0.836565,0.635486,-0.388716,-0.931438726,0.113682052,1.51494178
-1.247885,-7.876483,6.032919,-0.448129,-0.118378,-0.188253,0.823368,0.643924,-0.381595,-0.933683971,0.112595846,1.514654115
-1.27944,-7.782078,5.948924,-0.391138,-0.124107,-0.204762,0.823368,0.643924,-0.381595,-0.935651953,0.111403663,1.514544299
-1.327652,-7.742659,5.951406,-0.321791,-0.123723,-0.211341,0.823966,0.648768,-0.389207,-0.937268285,0.110206245,1.514513354
-1.323549,-7.752882,5.935132,-0.245174,-0.12008,-0.222569,0.823966,0.648768,-0.389207,-0.938513334,0.108953831,1.514338105
-1.345341,-7.76226,5.866422,-0.164477,-0.100388,-0.235375,0.839669,0.653776,-0.385576,-0.939361006,0.107729482,1.51398499
-1.365539,-7.701781,5.813159,-0.082336,-0.082485,-0.251348,0.839669,0.653776,-0.385576,-0.939816642,0.106471535,1.513573912
-1.357629,-7.648997,5.854743,0.002755,-0.06725,-0.264704,0.824417,0.661784,-0.388916,-0.939850501,0.105226557,1.513009036
-1.309152,-7.660196,5.867329,0.097785,-0.063987,-0.285916,0.824417,0.661784,-0.388916,-0.939423,0.10388363,1.512420494
-1.276159,-7.667189,5.927322,0.19005,-0.054609,-0.308715,0.823959,0.656819,-0.38388,-0.938537611,0.102499042,1.511679688
-1.244403,-7.750149,5.969665,0.280531,-0.056695,-0.337959,0.823959,0.656819,-0.38388,-0.937213674,0.100968894,1.510904657
-1.19476,-7.769932,6.021479,0.365141,-0.069983,-0.369401,0.821626,0.656631,-0.389189,-0.935462148,0.099295576,1.510156207
-1.169348,-7.824759,6.036996,0.449296,-0.077859,-0.38762,0.821626,0.656631,-0.389189,-0.93329848,0.097505548,1.509313318
-1.120222,-7.88927,6.069309,0.535847,-0.092723,-0.406845,0.82121,0.656993,-0.38146,-0.930694552,0.095619964,1.508248247
-1.043829,-7.88878,6.060728,0.620339,-0.100276,-0.411373,0.82121,0.656993,-0.38146,-0.927671606,0.093672088,1.507415114
-0.994345,-7.892313,6.134184,0.717358,-0.102428,-0.412364,0.819981,0.66389,-0.402053,-0.924153823,0.091737617,1.506751051
-1.004567,-7.934479,6.201757,0.808368,-0.111542,-0.417567,0.819981,0.66389,-0.402053,-0.920186322,0.089736892,1.505930816
-0.987755,-7.856985,6.245807,0.89603,-0.121617,-0.419817,0.820078,0.658442,-0.407322,-0.915768839,0.087721822,1.505225057
-1.032474,-7.828437,6.372255,0.966135,-0.132408,-0.41533,0.820078,0.658442,-0.407322,-0.911002919,0.085673467,1.50447727
-1.011721,-7.768207,6.348353,1.018146,-0.148446,-0.430428,0.812664,0.658239,-0.41552,-0.905967345,0.08354242,1.50374383
-0.997422,-7.774622,6.223763,1.038128,-0.165751,-0.46325,0.812664,0.658239,-0.41552,-0.900841328,0.081210222,1.502958414
-0.948816,-7.812418,6.169426,1.025442,-0.166032,-0.503158,0.810332,0.658051,-0.420829,-0.895780796,0.078748225,1.501972303
-0.875334,-7.824365,6.119034,1.004821,-0.138662,-0.529092,0.810332,0.658051,-0.420829,-0.89084352,0.076252438,1.500850806
-0.858456,-7.887725,6.156066,0.976722,-0.125208,-0.557085,0.792984,0.660302,-0.437324,-0.886047981,0.073717887,1.499688992
-0.825956,-7.911395,6.167532,0.956596,-0.106541,-0.582417,0.792984,0.660302,-0.437324,-0.881369135,0.07112869,1.498249898
-0.815524,-7.812003,6.22815,0.945527,-0.093781,-0.604457,0.803056,0.657727,-0.431604,-0.876745669,0.068526124,1.49650736
-0.803042,-7.786952,6.297135,0.942544,-0.071742,-0.620067,0.803056,0.657727,-0.431604,-0.872148313,0.065917536,1.49478999
-0.756864,-7.736601,6.321408,0.933908,-0.06188,-0.641072,0.79381,0.667628,-0.447455,-0.86759143,0.063291425,1.492937654
-0.700558,-7.712406,6.311182,0.934911,-0.053374,-0.655623,0.79381,0.667628,-0.447455,-0.863036154,0.060622798,1.491011525
-0.664114,-7.727668,6.404032,0.926016,-0.063452,-0.674843,0.793587,0.657095,-0.450264,-0.858516203,0.057879314,1.489173833
-0.605658,-7.630584,6.39164,0.92483,-0.109155,-0.710179,0.793587,0.657095,-0.450264,-0.854000074,0.054839386,1.487256204
-0.571215,-7.541713,6.37857,0.904936,-0.152124,-0.728197,0.771193,0.672709,-0.461628,-0.849568734,0.051623144,1.485239929
-0.52092,-7.520009,6.303758,0.895477,-0.190078,-0.737271,0.771193,0.672709,-0.461628,-0.845177693,0.048230973,1.48350987
-0.489963,-7.522707,6.221635,0.88698,-0.214352,-0.762511,0.772935,0.660002,-0.454033,-0.840819604,0.044695074,1.481688915
-0.501168,-7.424194,6.17433,0.876976,-0.217018,-0.786089,0.772935,0.660002,-0.454033,-0.83651281,0.041046496,1.479866895
-0.512586,-7.309838,6.167331,0.860174,-0.218786,-0.805157,0.773664,0.672777,-0.458895,-0.832283963,0.037354198,1.477705758
-0.519458,-7.153456,6.108399,0.846941,-0.216186,-0.808252,0.773664,0.672777,-0.458895,-0.828117756,0.033642178,1.475775528
-0.513719,-7.120713,6.164112,0.854458,-0.194164,-0.796283,0.767416,0.660833,-0.495666,-0.823901335,0.030074741,1.474578074
-0.487396,-7.043139,6.23028,0.848251,-0.175358,-0.803367,0.767416,0.660833,-0.495666,-0.819719332,0.026535928,1.472484254
-0.449541,-6.965285,6.258969,0.849171,-0.134898,-0.796634,0.759391,0.671888,-0.485597,-0.815528428,0.023195034,1.469882927
-0.422478,-6.859275,6.371326,0.860373,-0.104357,-0.791665,0.759391,0.671888,-0.485597,-0.811277066,0.019960362,1.467541986
-0.37929,-6.781371,6.499531,0.87121,-0.078574,-0.783486,0.745555,0.670154,-0.473556,-0.806965543,0.016881041,1.464708565
-0.31633,-6.754943,6.618991,0.879807,-0.050216,-0.788946,0.745555,0.670154,-0.473556,-0.802605761,0.013864116,1.462154414
-0.24579,-6.755521,6.650897,0.89555,-0.03165,-0.787242,0.754817,0.674115,-0.496157,-0.798157316,0.010951824,1.459725071
-0.206948,-6.727925,6.687296,0.929332,-0.010901,-0.786416,0.754817,0.674115,-0.496157,-0.793536485,0.008104422,1.457012637
-0.226339,-6.776992,6.937819,0.981605,-0.00467,-0.790437,0.752539,0.663152,-0.509428,-0.788642597,0.005298892,1.454655045
-0.241957,-6.704398,6.985035,1.047123,-0.026682,-0.795634,0.752539,0.663152,-0.509428,-0.783417428,0.00238988,1.451938142
-0.371913,-6.710149,6.636292,1.114393,0.004117,-0.798356,0.740176,0.670865,-0.517764,-0.777846876,-0.000379627,1.449010159
-0.269459,-6.574489,6.653279,1.195917,0.117365,-0.816401,0.740176,0.670865,-0.517764,-0.771861965,-0.002816107,1.445682862
-0.141504,-6.51556,6.957048,1.312118,0.13295,-0.863312,0.733039,0.670421,-0.531115,-0.765284741,-0.0053146,1.442203442
-0.07678,-6.455431,6.961422,1.416834,0.12388,-0.938591,0.733039,0.670421,-0.531115,-0.758174912,-0.008105295,1.438379773
0.042094,-6.356596,7.111756,1.490426,0.113241,-1.015989,0.727909,0.67313,-0.53137,-0.750683206,-0.01114559,1.4340653
0.162513,-6.271656,7.169416,1.535361,0.10352,-1.076467,0.727909,0.67313,-0.53137,-0.742951394,-0.014421958,1.429763428
0.259172,-6.248774,7.306796,1.537083,0.096414,-1.108313,0.722418,0.665427,-0.531857,-0.735193733,-0.017773428,1.425272781
0.319617,-6.262238,7.572713,1.513769,0.049975,-1.117309,0.722418,0.665427,-0.531857,-0.727540339,-0.021318595,1.420947155
0.423044,-6.310626,7.651226,1.495993,-0.014223,-1.066793,0.700911,0.669542,-0.566641,-0.719965851,-0.024881616,1.417288682
0.340048,-6.528401,7.502769,1.481491,-0.04141,-1.014251,0.700911,0.669542,-0.566641,-0.712460147,-0.028367198,1.413598024
0.247877,-6.727021,7.761282,1.478322,-0.082289,-1.011336,0.71029,0.667571,-0.548039,-0.704962,-0.031943902,1.409638027
0.274355,-6.704108,7.576349,1.472875,-0.120885,-1.032024,0.71029,0.667571,-0.548039,-0.697477362,-0.035734724,1.406083261
0.252643,-6.541087,7.710669,1.435321,-0.129008,-1.000253,0.695781,0.672251,-0.566896,-0.690171707,-0.039403914,1.402563926
0.244421,-6.53593,7.75364,1.364697,-0.152609,-0.956924,0.695781,0.672251,-0.566896,-0.683215555,-0.043027341,1.399344717
0.370728,-6.539665,7.870107,1.299083,-0.168163,-0.937488,0.696482,0.663597,-0.585105,-0.676578483,-0.046605687,1.396530006
0.499367,-6.538927,7.952183,1.228188,-0.194563,-0.941417,0.696482,0.663597,-0.585105,-0.670288541,-0.050301755,1.3934536
0.487666,-6.400032,7.999928,1.156654,-0.227712,-0.940792,0.675975,0.658332,-0.596778,-0.664348729,-0.054083536,1.390580368
0.478155,-6.335239,7.892637,1.084337,-0.237034,-0.939825,0.675975,0.658332,-0.596778,-0.658760008,-0.057905512,1.387595958
0.468821,-6.290392,7.977418,1.019755,-0.248938,-0.954959,0.676198,0.668866,-0.593969,-0.653483142,-0.061777753,1.384207697
0.498152,-6.185325,7.968935,0.970792,-0.259374,-0.988314,0.676198,0.668866,-0.593969,-0.648428283,-0.065803706,1.381056015
0.593921,-5.973659,8.004201,0.944564,-0.265042,-1.019361,0.671581,0.665765,-0.607221,-0.643483588,-0.069905964,1.377882586
0.586039,-5.864684,8.092888,0.943815,-0.312234,-1.031308,0.671581,0.665765,-0.607221,-0.638533518,-0.074240823,1.374674861
0.625754,-5.708611,7.941672,0.973341,-0.295796,-1.050575,0.661327,0.663133,-0.613058,-0.633411621,-0.078526114,1.371362068
0.601496,-5.614441,8.070696,1.018378,-0.297935,-1.048229,0.661327,0.663133,-0.613058,-0.628048536,-0.08282001,1.367996845
0.489274,-5.607924,8.005722,1.089116,-0.300199,-1.075841,0.640626,0.668764,-0.614193,-0.622309472,-0.087158272,1.364197017
0.508143,-5.38293,8.056626,1.173804,-0.272173,-1.086518,0.640626,0.668764,-0.614193,-0.616115086,-0.09141946,1.360548317
0.665767,-5.261346,8.116041,1.230706,-0.291277,-1.079109,0.64375,0.662901,-0.627034,-0.609626316,-0.095689899,1.357109895
0.625187,-5.113214,8.013957,1.287038,-0.289831,-1.069403,0.64375,0.662901,-0.627034,-0.602840961,-0.099927368,1.353524219
0.730965,-5.124653,8.111753,1.384973,-0.2801,-1.066066,0.634691,0.669958,-0.648096,-0.595547629,-0.104064306,1.349885625
0.69698,-5.03936,8.086729,1.444759,-0.29639,-1.033124,0.634691,0.669958,-0.648096,-0.587955181,-0.108175676,1.346405367
0.682259,-5.133275,7.917828,1.515585,-0.263825,-1.009238,0.628741,0.657289,-0.643547,-0.579993736,-0.112032087,1.342865611
0.818149,-5.158846,8.118406,1.577341,-0.238451,-1.002651,0.628741,0.657289,-0.643547,-0.571700295,-0.115761962,1.339286829
0.86431,-5.001122,8.092918,1.637277,-0.240954,-0.980724,0.600494,0.654787,-0.655631,-0.563104562,-0.119386,1.33560359
0.891177,-4.893586,8.078354,1.657793,-0.219379,-0.944896,0.600494,0.654787,-0.655631,-0.554398821,-0.1228206,1.332153788
0.902339,-4.78764,8.11192,1.677128,-0.195894,-0.880154,0.604083,0.645838,-0.678836,-0.545608135,-0.125930743,1.329145223
1.028557,-4.834811,8.147472,1.723677,-0.152925,-0.82664,0.604083,0.645838,-0.678836,-0.536586629,-0.128714981,1.325970572
1.041787,-4.802826,8.240266,1.740213,-0.118984,-0.763101,0.604687,0.642631,-0.691776,-0.527497317,-0.131136574,1.322968518
1.117412,-4.836219,8.543888,1.739768,-0.113491,-0.708554,0.604687,0.642631,-0.691776,-0.518427832,-0.133397562,1.320158082
1.216125,-4.842417,8.670042,1.723089,-0.133426,-0.654225,0.598917,0.63517,-0.687111,-0.509475371,-0.135558402,1.317361226
1.368226,-4.84386,8.494874,1.675596,-0.120432,-0.608205,0.598917,0.63517,-0.687111,-0.500771724,-0.137556892,1.314969059
1.474085,-4.78802,8.608557,1.593014,-0.109565,-0.552682,0.591927,0.626554,-0.708365,-0.492506731,-0.139329066,1.312861626
1.530837,-4.670412,8.58277,1.490889,-0.130518,-0.501132,0.591927,0.626554,-0.708365,-0.484783262,-0.141081447,1.310936597
1.596252,-4.62152,8.536317,1.379129,-0.125577,-0.463393,0.599535,0.615861,-0.710705,-0.477638579,-0.14268448,1.309211408
1.661804,-4.56061,8.374732,1.274877,-0.120479,-0.414619,0.599535,0.615861,-0.710705,-0.471037584,-0.14416719,1.307626002
1.652241,-4.468067,8.155802,1.190611,-0.040226,-0.352134,0.587136,0.610196,-0.727062,-0.464872485,-0.145115184,1.306149017
1.550335,-4.437285,8.518092,1.13507,-0.05481,-0.317589,0.587136,0.610196,-0.727062,-0.459006606,-0.146068169,1.304835691
1.454603,-4.259534,8.31174,1.07794,-0.015632,-0.269004,0.584262,0.594388,-0.73272,-0.453447014,-0.146706279,1.303810728
1.344748,-4.023288,8.559562,1.025806,0.002737,-0.208053,0.584262,0.594388,-0.73272,-0.448178526,-0.147147132,1.30285811
1.333964,-3.843623,8.528952,0.986271,0.035197,-0.128641,0.576709,0.594306,-0.738342,-0.443154978,-0.14723939,1.30205182
1.380142,-3.742837,8.640158,0.943028,0.064244,-0.04529,0.576709,0.594306,-0.738342,-0.438389162,-0.147045431,1.301706174
1.313745,-3.577138,8.746681,0.90686,0.063198,0.02423,0.595029,0.59121,-0.739881,-0.433855388,-0.14668228,1.301639067
1.191918,-3.424267,8.659581,0.891907,0.071643,0.112151,0.595029,0.59121,-0.739881,-0.429448849,-0.146122256,1.302002357
1.118031,-3.339165,8.873899,0.93434,0.105058,0.202542,0.59289,0.580126,-0.755728,-0.424882629,-0.14519985,1.302843571
1.085763,-3.28512,9.178981,1.034421,0.087182,0.298174,0.59289,0.580126,-0.755728,-0.419882625,-0.144191031,1.304037133
0.989208,-3.151616,9.087996,1.126714,0.087413,0.411698,0.58987,0.57249,-0.753483,-0.414498596,-0.142930886,1.305619868
0.973995,-3.095323,9.145798,1.222598,0.124352,0.544136,0.58987,0.57249,-0.753483,-0.408706736,-0.141272508,1.307887365
1.055055,-3.121307,9.101789,1.326847,0.123798,0.653585,0.592578,0.566989,-0.758596,-0.402464686,-0.139387325,1.310479285
1.015774,-3.009867,9.157046,1.416914,0.134722,0.756922,0.592578,0.566989,-0.758596,-0.395829168,-0.137295774,1.313735652
1.056764,-3.029602,9.237053,1.531562,0.139599,0.845706,0.609904,0.535258,-0.760775,-0.38866848,-0.135009705,1.317683554
1.151602,-3.043427,9.111722,1.649453,0.157173,0.925428,0.609904,0.535258,-0.760775,-0.380958677,-0.13254427,1.321713241
1.181981,-3.02809,8.957458,1.703288,0.185567,1.032727,0.610515,0.524001,-0.779042,-0.373030323,-0.12975436,1.326158073
1.101248,-2.963343,8.606195,1.764663,0.240763,1.167415,0.610515,0.524001,-0.779042,-0.364852527,-0.126526459,1.331209582
1.080244,-2.947169,8.77451,1.851091,0.265775,1.299799,0.620282,0.500239,-0.781516,-0.356299887,-0.122964136,1.336855183
1.136184,-2.887648,8.69647,1.983726,0.284343,1.400454,0.620282,0.500239,-0.781516,-0.347121528,-0.119217069,1.342983822
1.276682,-2.877212,8.418185,2.048499,0.340201,1.481151,0.631347,0.472666,-0.809812,-0.337630266,-0.11510399,1.349619218
1.226313,-2.637561,8.195439,2.02777,0.40367,1.568263,0.631347,0.472666,-0.809812,-0.328256605,-0.110633659,1.356413421
1.115349,-2.452903,7.996146,1.978914,0.506913,1.683713,0.635338,0.449493,-0.802294,-0.319139874,-0.105527067,1.363462233
1.083757,-2.331592,8.029847,1.941631,0.612247,1.796822,0.635338,0.449493,-0.802294,-0.310214308,-0.099835407,1.371097842
1.092304,-2.187776,8.090418,1.922757,0.717416,1.904687,0.645799,0.425128,-0.81765,-0.301374369,-0.093523159,1.379107877
1.049999,-2.055437,8.21877,1.939128,0.803869,2.016467,0.645799,0.425128,-0.81765,-0.292443655,-0.086729828,1.387607547
1.019873,-1.985688,8.345545,1.947319,0.900378,2.118361,0.665465,0.385534,-0.819847,-0.283441575,-0.079382932,1.396724296
0.991987,-1.914769,8.706068,1.929503,0.999046,2.214743,0.665465,0.385534,-0.819847,-0.274494769,-0.071531408,1.406020761
0.999837,-1.727731,9.046669,1.865546,1.088761,2.313588,0.691171,0.361212,-0.826536,-0.265817075,-0.063174645,1.415700414
1.066628,-1.605698,9.433014,1.724251,1.163335,2.418147,0.691171,0.361212,-0.826536,-0.257794579,-0.05442665,1.425891151
1.10779,-1.556865,9.552496,1.510962,1.231939,2.515795,0.714342,0.325684,-0.79487,-0.250764651,-0.045278625,1.436470137
1.150794,-1.473644,9.727777,1.23478,1.305338,2.609195,0.714342,0.325684,-0.79487,-0.245038415,-0.035750205,1.447524813
1.178385,-1.403422,9.769506,0.919326,1.360397,2.713085,0.716924,0.304202,-0.80806,-0.240790474,-0.025864185,1.458991108
1.20967,-1.355974,9.767705,0.603115,1.383067,2.810949,0.716924,0.304202,-0.80806,-0.238025226,-0.015813109,1.471007687
1.147562,-1.279257,9.668362,0.317327,1.401784,2.89413,0.757507,0.277561,-0.800987,-0.23656243,-0.00558064,1.483479501
1.018541,-1.251911,9.610085,0.062927,1.417795,2.969594,0.757507,0.277561,-0.800987,-0.236252843,0.004788959,1.49625406
0.774684,-1.270951,9.572046,-0.153706,1.416863,3.040405,0.760526,0.255233,-0.775434,-0.236879975,0.015256226,1.509295847
0.382347,-1.377458,9.479871,-0.324007,1.417993,3.113577,0.760526,0.255233,-0.775434,-0.2382236,0.02581083,1.522760841
-0.02538,-1.471163,9.297246,-0.409772,1.41485,3.187388,0.773222,0.236504,-0.780212,-0.239830473,0.036472912,1.536583488
-0.46994,-1.652709,9.089158,-0.42757,1.422623,3.254957,0.773222,0.236504,-0.780212,-0.241377254,0.047259505,1.550706751
-0.849291,-1.706345,9.014512,-0.408997,1.423317,3.306983,0.789931,0.224082,-0.758797,-0.242653736,0.058148392,1.564846018
-1.136845,-1.711716,9.02962,-0.441162,1.408034,3.379581,0.789931,0.224082,-0.758797,-0.243923132,0.069052149,1.579580042
-1.610342,-1.928833,8.88894,-0.518099,1.397543,3.477548,0.822086,0.192756,-0.74458,-0.245365909,0.080058531,1.59486812
-1.878532,-2.19915,8.80107,-0.583937,1.414947,3.572945,0.822086,0.192756,-0.74458,-0.246945782,0.091273551,1.610527692
-1.872561,-2.508603,8.685829,-0.625678,1.441124,3.637088,0.828833,0.161358,-0.744809,-0.248515497,0.102733004,1.626690478
-1.810349,-2.776609,8.661758,-0.624334,1.464205,3.679825,0.828833,0.161358,-0.744809,-0.249890834,0.114366029,1.64281038
-1.512014,-2.985458,8.587111,-0.582436,1.465208,3.762416,0.852414,0.13352,-0.715545,-0.250806591,0.126140706,1.65929408
-1.656316,-3.229733,8.488457,-0.550116,1.438031,3.825251,0.852414,0.13352,-0.715545,-0.251334589,0.137857525,1.676181125
-2.195677,-3.387343,8.445543,-0.548403,1.396865,3.84926,0.866943,0.104686,-0.71267,-0.251618833,0.149427161,1.693301207
-2.685641,-3.481583,8.499647,-0.641035,1.399278,3.788684,0.866943,0.104686,-0.71267,-0.252226993,0.160925029,1.710104493
-2.786338,-3.364243,8.755788,-0.794578,1.398355,3.676396,0.878251,0.087164,-0.691684,-0.253490228,0.172311806,1.726116779
-2.679917,-3.172537,8.980782,-0.982645,1.357962,3.547951,0.878251,0.087164,-0.691684,-0.255625221,0.183350302,1.741822637
-2.588691,-2.984863,9.269292,-1.215127,1.304432,3.413675,0.898779,0.068275,-0.695993,-0.258854535,0.194017829,1.75685883
-2.674598,-2.884522,9.548008,-1.392839,1.225012,3.273117,0.898779,0.068275,-0.695993,-0.262947438,0.204157376,1.771377253
-2.821456,-2.651743,9.812572,-1.514922,1.144303,3.1172,0.90111,0.038499,-0.662885,-0.267638379,0.213781475,1.785329403
-2.863062,-2.412347,10.110082,-1.582379,1.0724,2.956674,0.90111,0.038499,-0.662885,-0.272706853,0.22289482,1.798456955
-2.906857,-2.029146,10.364594,-1.585438,1.001909,2.824482,0.908295,0.03622,-0.652169,-0.277794175,0.231573229,1.810724757
-2.935674,-1.72625,10.521144,-1.535702,0.930832,2.746195,0.908295,0.03622,-0.652169,-0.282612735,0.239843371,1.822971633
-3.094039,-1.462635,10.585924,-1.43877,0.833439,2.682187,0.912154,0.005116,-0.647401,-0.286880433,0.247624384,1.83536784
-3.10327,-1.187714,10.450311,-1.304853,0.741466,2.657608,0.912154,0.005116,-0.647401,-0.290405529,0.254960965,1.847429623
-3.211414,-1.243989,10.257324,-1.173062,0.649406,2.663008,0.921005,0.001388,-0.667601,-0.293128557,0.261917816,1.859629899
-3.389851,-1.537667,10.088058,-1.10528,0.586157,2.653444,0.921005,0.001388,-0.667601,-0.295436896,0.268570979,1.871905922
-3.501283,-1.893239,9.90216,-1.112709,0.534528,2.606457,0.924489,-0.024026,-0.652412,-0.297724622,0.274951801,1.884138346
-3.743546,-2.231839,9.615265,-1.177713,0.498162,2.526618,0.924489,-0.024026,-0.652412,-0.300377297,0.281054085,1.895929569
-4.04904,-2.52754,9.46016,-1.277431,0.465788,2.45511,0.926134,-0.031285,-0.639548,-0.303525157,0.2869481,1.907110362
-4.28175,-2.866347,9.46386,-1.33813,0.419429,2.401557,0.926134,-0.031285,-0.639548,-0.306989235,0.292557224,1.918403433
-4.501236,-3.152187,9.612703,-1.276824,0.372285,2.337686,0.93141,-0.042166,-0.647197,-0.310136955,0.297899225,1.92939697
-4.666783,-3.374852,9.88651,-1.072011,0.307183,2.280673,0.93141,-0.042166,-0.647197,-0.312280221,0.302853309,1.940268979
-4.707345,-3.511427,10.190598,-0.761498,0.2064,2.224902,0.921885,-0.061988,-0.630097,-0.312832338,0.307274911,1.95108184
-4.677166,-3.546445,10.473117,-0.427251,0.076086,2.176053,0.921885,-0.061988,-0.630097,-0.311699183,0.310979653,1.961828395
-4.736248,-3.409937,10.737612,-0.100216,-0.065416,2.13139,0.918642,-0.080157,-0.630661,-0.308867577,0.313941688,1.97263197
-4.755432,-3.172363,10.900315,0.197026,-0.198469,2.062478,0.918642,-0.080157,-0.630661,-0.304581064,0.316109457,1.983286983
-4.763109,-2.920642,11.031639,0.528684,-0.326437,1.968116,0.920801,-0.093227,-0.630795,-0.298676159,0.317497902,1.99329769
-4.721788,-2.655504,11.058997,0.885107,-0.450455,1.875812,0.920801,-0.093227,-0.630795,-0.29108338,0.318068712,2.003433956
-4.676072,-2.515811,11.033975,1.242413,-0.558073,1.801126,0.911977,-0.121703,-0.631904,-0.281744154,0.31795647,2.013458416
-4.699713,-2.508149,10.993388,1.542512,-0.649725,1.730218,0.911977,-0.121703,-0.631904,-0.271004475,0.317191824,2.023152328
-4.777748,-2.539276,10.948074,1.767681,-0.727223,1.654634,0.906776,-0.14575,-0.648199,-0.259214352,0.315871202,2.032672666
-4.858392,-2.553806,10.868328,1.912631,-0.789032,1.567525,0.906776,-0.14575,-0.648199,-0.246857294,0.314013839,2.041691903
-4.846793,-2.49246,10.7778,1.979512,-0.844585,1.491364,0.900653,-0.171676,-0.649093,-0.234267338,0.311712639,2.05024875
-4.904392,-2.334076,10.749288,2.030173,-0.903176,1.433727,0.900653,-0.171676,-0.649093,-0.221549799,0.308933306,2.058653719
-4.957888,-2.233033,10.755181,2.115959,-0.962596,1.411745,0.891877,-0.202875,-0.652837,-0.208430555,0.305759546,2.067131397
-4.900499,-2.215517,10.761284,2.237833,-1.031252,1.426028,0.891877,-0.202875,-0.652837,-0.194726294,0.30213535,2.07553462
-4.809005,-2.276914,10.733883,2.339584,-1.10711,1.452586,0.874569,-0.225262,-0.638841,-0.180477262,0.298079745,2.083687772
-4.689283,-2.404921,10.755806,2.412181,-1.176331,1.483909,0.874569,-0.225262,-0.638841,-0.165880003,0.293564663,2.092387631
-4.591232,-2.505269,10.861923,2.463562,-1.244026,1.511,0.864947,-0.263305,-0.678926,-0.151008674,0.288633251,2.102122558
-4.525312,-2.442556,11.026939,2.556851,-1.308344,1.553304,0.864947,-0.263305,-0.678926,-0.135689546,0.283268228,2.111108756
-4.558356,-2.17585,11.112705,2.782711,-1.380822,1.590908,0.853415,-0.28628,-0.674922,-0.11923002,0.27746279,2.119699533
-4.379845,-1.877451,11.193975,3.106461,-1.439058,1.647823,0.853415,-0.28628,-0.674922,-0.10117013,0.27121737,2.12902874
-4.109422,-1.476654,11.217248,3.459977,-1.497201,1.709366,0.830442,-0.329627,-0.666857,-0.08132524,0.264565988,2.138995918
-3.761492,-1.052243,11.291354,3.766409,-1.565389,1.770632,0.830442,-0.329627,-0.666857,-0.059986922,0.257383728,2.148708226
-3.442929,-0.68376,11.344325,3.925485,-1.632824,1.811959,0.81049,-0.365338,-0.661037,-0.037890783,0.249702757,2.158267992
-3.317979,-0.339416,11.408675,3.915369,-1.701685,1.834476,0.81049,-0.365338,-0.661037,-0.015958215,0.241444502,2.167956581
-3.340268,0.058631,11.625194,3.779946,-1.776754,1.822431,0.806719,-0.415229,-0.672604,0.005174834,0.232638858,2.17737658
-3.324331,0.501212,11.852756,3.58344,-1.872481,1.818894,0.806719,-0.415229,-0.672604,0.025168269,0.223139707,2.186565376
-3.098326,0.947762,11.98422,3.386468,-1.982289,1.793407,0.778928,-0.44273,-0.661927,0.044030697,0.212957627,2.194840073
-2.682878,1.223791,11.957646,3.203758,-2.066957,1.740566,0.778928,-0.44273,-0.661927,0.061764907,0.202177317,2.203162801
-2.233972,1.50074,11.785872,3.039159,-2.142106,1.657951,0.765494,-0.482357,-0.681615,0.07847913,0.190942558,2.210670914
-1.986309,1.71198,11.585693,2.919417,-2.192313,1.543019,0.765494,-0.482357,-0.681615,0.094338856,0.179356219,2.217528316
-1.767963,1.772298,11.205455,2.847806,-2.209838,1.385368,0.742133,-0.503913,-0.652474,0.109610005,0.167695373,2.2224543
-1.678926,1.931141,10.683916,2.78586,-2.167199,1.210528,0.742133,-0.503913,-0.652474,0.124315074,0.156227281,2.227263941
-1.668165,2.255365,10.311478,2.733058,-2.095483,1.069616,0.730886,-0.535181,-0.658951,0.138599064,0.145172046,2.230705261
-1.634547,2.420872,10.179907,2.715194,-2.038443,0.977192,0.730886,-0.535181,-0.658951,0.15264726,0.134378891,2.234093505
-1.487213,2.387269,10.08522,2.723113,-1.98913,0.923669,0.70774,-0.561821,-0.684127,0.166672505,0.123853085,2.237228693
-1.414207,2.186027,10.021337,2.704554,-1.942366,0.879127,0.70774,-0.561821,-0.684127,0.18051168,0.113528184,2.239899572
-1.28904,1.896933,9.951844,2.6492,-1.88908,0.825001,0.692113,-0.578088,-0.649247,0.194030273,0.103513864,2.241571738
-1.261356,1.667188,9.921455,2.538975,-1.822709,0.757965,0.692113,-0.578088,-0.649247,0.206913252,0.09382833,2.243480134
-1.211336,1.533124,9.849039,2.380957,-1.760335,0.691376,0.670189,-0.603575,-0.648504,0.218975804,0.084519822,2.245528855
-1.165347,1.550981,9.80897,2.209853,-1.696419,0.62583,0.670189,-0.603575,-0.648504,0.230118357,0.075554079,2.246694508
-1.110677,1.654577,9.76458,2.052837,-1.633924,0.583917,0.667773,-0.614418,-0.659199,0.240469508,0.066969918,2.246198032
-0.930229,1.674968,9.786405,1.934571,-1.568917,0.555969,0.667773,-0.614418,-0.659199,0.2501922,0.058685203,2.246990917
-0.792653,1.752999,9.825336,1.826236,-1.509711,0.536811,0.655825,-0.637031,-0.647466,0.259380874,0.050732834,2.24779541
-0.593745,1.863232,9.861372,1.68535,-1.446961,0.516079,0.655825,-0.637031,-0.647466,0.267836108,0.043075739,2.248402191
-0.501965,1.993046,9.82816,1.508187,-1.379691,0.486912,0.64521,-0.650076,-0.653535,0.275414662,0.035809512,2.248576148
-0.434155,2.131651,9.732979,1.308302,-1.298919,0.453499,0.64521,-0.650076,-0.653535,0.281968952,0.028941847,2.248969703
-0.352288,2.25758,9.53099,1.113954,-1.200743,0.406381,0.628716,-0.649033,-0.639015,0.287562665,0.022641677,2.248910205
-0.314747,2.386379,9.287021,0.945662,-1.095033,0.341402,0.628716,-0.649033,-0.639015,0.292292387,0.016907151,2.248980733
-0.238115,2.549496,9.109458,0.76938,-0.981792,0.274287,0.623738,-0.662546,-0.652501,0.296154331,0.011843041,2.248677988
-0.112169,2.672125,8.96731,0.595323,-0.871652,0.200439,0.623738,-0.662546,-0.652501,0.299127868,0.007382606,2.248357982
0.033626,2.750379,8.846273,0.423978,-0.772665,0.140034,0.615261,-0.664507,-0.642723,0.301261673,0.003514676,2.247923081
0.070077,2.776038,8.726331,0.305577,-0.676268,0.087112,0.615261,-0.664507,-0.642723,0.302788488,0.000156958,2.247333142
0.044208,2.773541,8.560893,0.267722,-0.592226,0.07363,0.605563,-0.667622,-0.658865,0.304144173,-0.002748842,2.246771006
0.121935,2.662733,8.537284,0.304765,-0.531695,0.100434,0.605563,-0.667622,-0.658865,0.305669312,-0.005435324,2.246451925
0.236649,2.467592,8.416692,0.362628,-0.47904,0.133216,0.602217,-0.672293,-0.648832,0.307499221,-0.007891457,2.246506065
0.294305,2.291502,8.224424,0.406224,-0.434443,0.169761,0.602217,-0.672293,-0.648832,0.309528987,-0.010218715,2.246655221
0.358443,2.166652,7.994882,0.420689,-0.38671,0.201801,0.602772,-0.672776,-0.659138,0.311643612,-0.012335277,2.246549506
0.469342,2.109105,7.711335,0.39607,-0.3365,0.221794,0.602772,-0.672776,-0.659138,0.313616812,-0.014277183,2.247087312
0.488786,2.075421,7.492093,0.35114,-0.267453,0.23868,0.597184,-0.675031,-0.654356,0.315376646,-0.015889083,2.247754796
0.571925,2.094661,7.417027,0.278911,-0.223177,0.22407,0.597184,-0.675031,-0.654356,0.316759278,-0.017297809,2.248472912
0.680149,2.240519,7.16247,0.189766,-0.163432,0.213772,0.604556,-0.680156,-0.64885,0.317709157,-0.018378168,2.249016931
0.799935,2.417621,7.102557,0.088769,-0.104463,0.195047,0.604556,-0.680156,-0.64885,0.318138665,-0.01917903,2.249780164
0.828628,2.656201,7.101282,-0.012785,-0.065473,0.194787,0.601855,-0.682706,-0.649065,0.318073599,-0.01976773,2.250593436
0.759169,2.766084,7.311553,-0.090057,-0.058937,0.187112,0.601855,-0.682706,-0.649065,0.317607334,-0.020339901,2.251390214
0.775435,2.789608,7.33908,-0.140972,-0.096525,0.164767,0.600634,-0.68386,-0.674985,0.316904525,-0.021027718,2.251786491
0.815563,2.752402,7.36946,-0.159292,-0.129852,0.118465,0.600634,-0.68386,-0.674985,0.316100329,-0.021828964,2.25214739
0.862116,2.737049,7.363651,-0.190888,-0.188962,0.047881,0.590241,-0.686371,-0.678245,0.315163035,-0.022778057,2.252286196
0.899809,2.708651,7.335896,-0.237798,-0.259918,-0.03752,0.590241,-0.686371,-0.678245,0.313987607,-0.023955701,2.251705543
0.857949,2.703616,7.304573,-0.30024,-0.334669,-0.132293,0.597142,-0.680358,-0.657049,0.312530414,-0.025319345,2.250509765
0.8554,2.65938,7.223209,-0.379493,-0.407029,-0.230576,0.597142,-0.680358,-0.657049,0.310677903,-0.026902901,2.248787874
0.932949,2.575128,7.09658,-0.461883,-0.459598,-0.327765,0.58693,-0.677664,-0.660192,0.308447389,-0.028570843,2.246731876
0.868692,2.730061,7.435065,-0.55645,-0.569735,-0.374582,0.58693,-0.677664,-0.660192,0.305743611,-0.030719955,2.244084297
0.699719,2.651197,7.703533,-0.635488,-0.796614,-0.364541,0.578517,-0.668487,-0.691501,0.302677136,-0.033950857,2.24104875
0.461972,2.373248,7.54185,-0.673873,-1.025215,-0.3481,0.578517,-0.668487,-0.691501,0.299422828,-0.03833017,2.237864447
0.416939,2.063005,7.219745,-0.711594,-1.125258,-0.343817,0.5754,-0.670675,-0.683987,0.296015333,-0.043184072,2.234801952
0.514502,1.758854,6.983152,-0.757891,-1.096783,-0.341408,0.5754,-0.670675,-0.683987,0.292372847,-0.047937251,2.231574732
0.709044,1.493215,6.996283,-0.828022,-0.989431,-0.266417,0.571596,-0.650346,-0.696716,0.288382778,-0.052271848,2.228625909
1.015362,0.694259,7.263481,-0.805771,-0.929312,0.032729,0.571596,-0.650346,-0.696716,0.284416987,-0.056775236,2.227468511
0.279605,0.086474,7.668337,-0.71901,-0.84735,0.078582,0.574459,-0.653365,-0.701941,0.28088245,-0.06093139,2.226635029
0.234116,0.366054,8.091753,-0.822134,-0.740069,-0.185373,0.574459,-0.653365,-0.701941,0.276891438,-0.064233467,2.224721589
0.79572,1.21346,8.19573,-1.084613,-0.708752,-0.291741,0.563009,-0.635718,-0.720355,0.271635237,-0.067227145,2.222257654
1.133812,1.802459,8.01863,-1.378125,-0.753436,-0.206391,0.563009,-0.635718,-0.720355,0.264882189,-0.070585927,2.220259373
1.094402,2.033668,7.991637,-1.646801,-0.807505,-0.09894,0.563836,-0.62839,-0.730488,0.256769511,-0.074338038,2.218726276
1.047809,2.03066,8.214428,-1.780827,-0.891107,-0.062853,0.563836,-0.62839,-0.730488,0.247973886,-0.078573832,2.21730528
0.941717,2.07554,8.241373,-1.806484,-0.955308,-0.084469,0.560823,-0.61411,-0.761374,0.239078899,-0.083085859,2.215620513
0.81989,2.312531,8.20472,-1.763183,-0.968938,-0.107695,0.560823,-0.61411,-0.761374,0.230404225,-0.087672289,2.213963951
0.59958,2.552362,8.231513,-1.618644,-0.937849,-0.122481,0.541083,-0.60127,-0.775219,0.222471508,-0.092084588,2.212451814
0.457993,2.882676,8.147715,-1.388181,-0.865554,-0.131854,0.541083,-0.60127,-0.775219,0.215680132,-0.096165501,2.210860719
0.530964,3.240033,7.881426,-1.090507,-0.759222,-0.124109,0.538882,-0.593526,-0.777778,0.210379286,-0.099723828,2.209502364
0.509921,3.451852,7.57934,-0.783251,-0.634433,-0.106387,0.538882,-0.593526,-0.777778,0.206582582,-0.102717086,2.208319327
0.539204,3.510971,7.343682,-0.534917,-0.482363,-0.092577,0.544923,-0.578251,-0.78227,0.204021398,-0.104959992,2.207053194
0.539528,3.458316,7.300376,-0.348509,-0.334781,-0.083509,0.544923,-0.578251,-0.78227,0.202358098,-0.106515081,2.206302249
0.351287,3.37573,7.320304,-0.194162,-0.213255,-0.071706,0.542264,-0.575473,-0.779791,0.201465344,-0.107465693,2.205700965
0.157212,3.27717,7.581042,-0.081185,-0.139803,-0.055153,0.542264,-0.575473,-0.779791,0.201103782,-0.108095338,2.205288613
0.189676,3.039612,7.808652,0.070104,-0.065057,-0.054412,0.541493,-0.593579,-0.777622,0.201509937,-0.10834019,2.205365094
0.325734,2.847333,8.15139,0.314762,0.109978,-0.060494,0.541493,-0.593579,-0.777622,0.203103912,-0.1077406,2.205178186
0.698846,2.655164,8.868554,0.646064,0.343772,-0.033122,0.539472,-0.580628,-0.780064,0.206333838,-0.105998638,2.205045733
0.897567,2.502037,9.519947,0.950725,0.508989,0.006186,0.539472,-0.580628,-0.780064,0.211028845,-0.103515191,2.205606298
0.851279,2.37086,9.895955,1.13664,0.577505,0.030441,0.540937,-0.593096,-0.767314,0.216654393,-0.100703639,2.206476659
0.776775,2.337174,10.205379,1.180078,0.55517,0.010543,0.540937,-0.593096,-0.767314,0.222489398,-0.098005777,2.207135958
0.732899,2.484981,10.402107,1.110234,0.452828,-0.041958,0.548547,-0.603791,-0.769654,0.228031257,-0.095728191,2.207330248
1.033998,3.016258,10.46574,0.938525,0.273459,-0.084178,0.548547,-0.603791,-0.769654,0.232733193,-0.094300773,2.207232265
1.521335,3.857607,10.426605,0.753865,0.060166,-0.097621,0.548227,-0.608878,-0.767194,0.236561592,-0.093871824,2.206780783
1.720176,4.392226,10.481155,0.6622,-0.139276,-0.073888,0.548227,-0.608878,-0.767194,0.239922015,-0.094461204,2.206255107
1.828555,4.58833,10.657925,0.699722,-0.287444,-0.047344,0.547582,-0.610999,-0.756944,0.243498144,-0.095777968,2.205627609
1.351225,4.293811,11.063852,0.791695,-0.366405,-0.046349,0.547582,-0.610999,-0.756944,0.247521584,-0.097498584,2.2049544
1.017431,3.772825,11.224826,0.873011,-0.420584,-0.10027,0.542367,-0.618946,-0.762586,0.252009892,-0.099390766,2.203942789
1.419928,3.290993,10.959075,0.915711,-0.390395,-0.289915,0.542367,-0.618946,-0.762586,0.256778796,-0.100914981,2.202039088
1.460997,3.377473,10.893063,0.907186,-0.35435,-0.415232,0.541311,-0.628757,-0.749934,0.261589694,-0.102075573,2.199747801
1.78491,3.464577,10.829082,0.900996,-0.311149,-0.430985,0.541311,-0.628757,-0.749934,0.266350535,-0.103015031,2.197248471
1.566943,3.611065,10.853621,0.842666,-0.291695,-0.367449,0.540478,-0.628033,-0.734473,0.270812367,-0.103913074,2.195084297
1.255475,3.520005,11.080884,0.821866,-0.282688,-0.312073,0.540478,-0.628033,-0.734473,0.275119038,-0.10485337,2.193190352
0.924433,3.367865,11.005983,0.848571,-0.302168,-0.287743,0.542449,-0.638259,-0.729395,0.279576524,-0.105892417,2.191472023
1.092489,3.217235,10.652871,0.959121,-0.307648,-0.293553,0.542449,-0.638259,-0.729395,0.284568482,-0.10696117,2.189623648
1.214435,3.020627,10.353321,1.092283,-0.333475,-0.272111,0.550233,-0.635694,-0.726291,0.29024536,-0.108150927,2.187464448
1.147152,2.843718,9.901866,1.204439,-0.356384,-0.227841,0.550233,-0.635694,-0.726291,0.296443026,-0.109527189,2.18584911
1.184722,2.438238,9.538109,1.275217,-0.377111,-0.193631,0.541852,-0.643105,-0.721781,0.303006584,-0.111022309,2.184387309
1.274591,2.26917,9.129729,1.258917,-0.41818,-0.164897,0.541852,-0.643105,-0.721781,0.309460326,-0.11276722,2.182961933
1.074574,2.230284,8.802731,1.22821,-0.46293,-0.162991,0.538373,-0.655708,-0.714497,0.315793814,-0.114699248,2.181573244
1.075924,2.34562,8.579915,1.209907,-0.440806,-0.118184,0.538373,-0.655708,-0.714497,0.321988811,-0.116606754,2.180312714
0.894179,2.28323,8.265417,1.198849,-0.374861,-0.127431,0.533109,-0.660931,-0.717503,0.32814623,-0.118158248,2.179023596
0.994746,2.648425,8.087013,1.214093,-0.242576,-0.098667,0.533109,-0.660931,-0.717503,0.33431934,-0.119144621,2.178156551
0.615239,2.894884,8.12603,1.264402,-0.063021,-0.057835,0.526922,-0.668032,-0.705106,0.340707824,-0.119325943,2.177846807
0.340607,3.095715,8.135435,1.29118,0.176518,0.013141,0.526922,-0.668032,-0.705106,0.347120777,-0.118517053,2.178208824
0.299957,3.083519,8.524243,1.30636,0.385318,0.053163,0.541809,-0.678404,-0.69667,0.353565618,-0.116775894,2.178932001
0.500609,3.242741,8.763841,1.332977,0.57458,0.095383,0.541809,-0.678404,-0.69667,0.360062225,-0.114250384,2.180392092
0.446157,3.350627,8.969151,1.347561,0.735929,0.11388,0.535913,-0.701852,-0.700083,0.366613007,-0.110992952,2.182450028
-0.060657,3.439539,9.133153,1.222255,0.871847,0.126236,0.535913,-0.701852,-0.700083,0.372487421,-0.107155844,2.184626088
0.539842,3.139218,8.790266,1.069983,1.029287,0.074979,0.563056,-0.698384,-0.667381,0.377622042,-0.10247932,2.186496314
0.909756,3.527535,9.225232,0.935937,1.232328,0.002095,0.563056,-0.698384,-0.667381,0.382072424,-0.096760607,2.188802104
0.445263,3.775694,9.532957,0.776297,1.237548,-0.097384,0.564284,-0.705283,-0.646784,0.385798652,-0.090819573,2.19081789
0.410961,4.125436,9.492903,0.669111,1.272043,-0.16477,0.564284,-0.705283,-0.646784,0.388999988,-0.084619288,2.192464225
-0.037945,3.968971,9.691683,0.644215,1.345266,-0.25838,0.57863,-0.701306,-0.666501,0.392129103,-0.077881302,2.193352109
0.183883,4.076385,10.374226,0.713382,1.33074,-0.415276,0.57863,-0.701306,-0.666501,0.395648596,-0.07094009,2.19399008
0.540465,4.465449,10.902576,0.811701,1.191168,-0.580536,0.59342,-0.706229,-0.652794,0.39975164,-0.064301256,2.193538406
1.005089,4.879724,11.420871,0.900557,0.988371,-0.662763,0.59342,-0.706229,-0.652794,0.404323026,-0.058456617,2.192420452
1.198413,5.203104,11.545012,1.007644,0.734635,-0.659645,0.596433,-0.720509,-0.621907,0.409469986,-0.053759306,2.191347825
1.250381,5.283682,11.494025,1.111655,0.473479,-0.552311,0.596433,-0.720509,-0.621907,0.415110788,-0.050483548,2.189764182
1.263487,4.975943,11.334761,1.222753,0.19742,-0.422797,0.598627,-0.7202,-0.61402,0.421319695,-0.048701409,2.188225011
1.13475,4.575327,10.822308,1.298139,-0.037434,-0.317611,0.598627,-0.7202,-0.61402,0.427884317,-0.048217604,2.186699104
0.904192,4.150044,10.27769,1.302587,-0.205492,-0.253227,0.595419,-0.724992,-0.606562,0.434492154,-0.048601018,2.185132199
0.686413,3.777887,9.545241,1.238452,-0.29872,-0.212795,0.595419,-0.724992,-0.606562,0.440762811,-0.049502795,2.183533633
0.490088,3.538248,8.923747,1.098017,-0.312056,-0.168345,0.592995,-0.727785,-0.611931,0.446341514,-0.050528962,2.181942521
0.353052,3.421193,8.493357,0.923331,-0.275849,-0.116504,0.592995,-0.727785,-0.611931,0.451015525,-0.05151886,2.180817952
0.235337,3.268084,8.261468,0.757281,-0.218777,-0.062781,0.596925,-0.732132,-0.591119,0.454857939,-0.052344471,2.180095455
0.125796,3.209802,8.081104,0.607158,-0.164344,-0.013755,0.596925,-0.732132,-0.591119,0.457916089,-0.053051627,2.179671026
0.003509,3.174112,7.980705,0.488373,-0.105093,0.027083,0.591474,-0.734509,-0.588913,0.460379377,-0.053561682,2.179593097
0.001301,3.196509,8.021707,0.425946,-0.071901,0.060296,0.591474,-0.734509,-0.588913,0.462503182,-0.054017667,2.179703175
-0.065667,3.226956,8.062078,0.385286,-0.052854,0.074661,0.59739,-0.735219,-0.601485,0.464431877,-0.054397294,2.179636643
-0.162951,3.307223,8.071787,0.366068,-0.055633,0.098139,0.59739,-0.735219,-0.601485,0.466245065,-0.054865915,2.179950855
-0.148811,3.360879,8.026831,0.344605,-0.073739,0.123294,0.593766,-0.739649,-0.586296,0.467960742,-0.055451333,2.180460474
-0.258557,3.416071,7.878047,0.310912,-0.11434,0.127864,0.593766,-0.739649,-0.586296,0.469497854,-0.056250031,2.180773115
-0.525724,3.17239,7.596261,0.306752,-0.164173,0.097916,0.591016,-0.739475,-0.583876,0.471040848,-0.057180432,2.180822839
-0.482744,3.289421,7.346837,0.332801,-0.209061,0.042531,0.591016,-0.739475,-0.583876,0.472721356,-0.058208012,2.180536657
-0.445406,3.258829,7.112243,0.360501,-0.242973,0.02882,0.589731,-0.75177,-0.568705,0.474561859,-0.059332912,2.180404955
-0.45023,3.240459,7.04517,0.383221,-0.290047,0.034468,0.589731,-0.75177,-0.568705,0.476508653,-0.060700972,2.179893346
-0.468281,3.086556,6.917272,0.429866,-0.338358,0.037472,0.586107,-0.749904,-0.643788,0.478705884,-0.06225901,2.178475999
-0.595129,2.875985,6.549002,0.444732,-0.362639,0.009277,0.586107,-0.749904,-0.643788,0.480979804,-0.063888677,2.177678557
-0.576075,2.888664,6.221213,0.387135,-0.345065,-0.047032,0.584739,-0.749181,-0.571537,0.48299313,-0.065286948,2.177312213
-0.730139,3.053056,6.280263,0.303214,-0.325497,-0.096112,0.584739,-0.749181,-0.571537,0.484587227,-0.066503985,2.176127256
-0.850502,3.35433,6.336697,0.212229,-0.289073,-0.133889,0.587953,-0.752441,-0.584323,0.485744101,-0.067442466,2.174772531
-1.036527,4.030157,5.975024,0.106239,-0.230548,-0.094266,0.587953,-0.752441,-0.584323,0.486340201,-0.068241373,2.173815147
-0.463759,4.506316,6.270387,0.013657,-0.156593,-0.021427,0.577184,-0.749263,-0.57716,0.486452409,-0.068856497,2.17357965
0.375629,5.308065,6.803224,0.030744,-0.106531,0.023665,0.577184,-0.749263,-0.57716,0.486616138,-0.069382505,2.173434892
0.89825,5.828809,7.228954,0.13793,-0.092585,-0.010359,0.581947,-0.754335,-0.57181,0.487337884,-0.069739809,2.17328544
1.091721,6.225378,7.622061,0.22619,-0.044075,-0.095665,0.581947,-0.754335,-0.57181,0.488505562,-0.069710068,2.172758385
1.010379,6.818381,7.913947,0.276826,0.030327,-0.217838,0.587995,-0.747113,-0.58163,0.489966281,-0.069032758,2.171315608
0.520687,7.009411,8.579581,0.29139,0.131803,-0.249733,0.587995,-0.747113,-0.58163,0.491477441,-0.067862916,2.170523053
0.365652,6.937077,9.886955,0.454908,0.152179,-0.251928,0.590419,-0.744321,-0.576261,0.493819691,-0.066567427,2.169577329
0.160237,6.897029,10.28141,0.696335,0.126613,-0.21144,0.590419,-0.744321,-0.576261,0.497342954,-0.065507628,2.168947038
-0.53744,6.596662,9.630857,0.786284,0.12745,-0.11287,0.581989,-0.749007,-0.569116,0.501305952,-0.064650776,2.168999887
-0.727794,6.403194,10.102267,0.853701,0.174061,-0.010334,0.581989,-0.749007,-0.569116,0.50555035,-0.063863353,2.169375324
-0.966633,6.312127,9.42522,0.89052,0.238463,0.098246,0.575295,-0.75835,-0.549047,0.509959386,-0.063033727,2.170943818
-0.87842,6.034121,9.073092,0.724031,0.334386,0.263476,0.575295,-0.75835,-0.549047,0.513456172,-0.062220875,2.172915063
-0.431846,5.720207,9.258677,0.578479,0.353437,0.404261,0.580197,-0.763543,-0.546273,0.516205206,-0.06164523,2.175378945
0.300248,4.069886,8.557291,0.543483,0.337717,0.450115,0.580197,-0.763543,-0.546273,0.518750822,-0.061290911,2.178175505
0.703661,3.270448,8.209668,0.668622,0.34993,0.400203,0.5818,-0.776132,-0.5361,0.521953922,-0.06073724,2.180916162
0.481837,3.248074,7.696146,0.709884,0.33943,0.381678,0.5818,-0.776132,-0.5361,0.52535187,-0.060221634,2.183422107
0.590498,2.911704,7.440392,0.618914,0.386555,0.365899,0.591966,-0.776103,-0.530321,0.528310257,-0.059436585,2.185514443
1.052299,3.083838,7.551968,0.56207,0.427822,0.337559,0.591966,-0.776103,-0.530321,0.53097089,-0.058443108,2.188056202
1.241147,3.327701,7.668963,0.40371,0.445792,0.344643,0.578641,-0.783649,-0.531277,0.532854572,-0.057367217,2.190835501
1.314462,3.640736,8.075047,0.235869,0.430446,0.360227,0.578641,-0.783649,-0.531277,0.533883235,-0.056429521,2.193485069
1.205629,3.79302,8.362409,0.10573,0.380237,0.378204,0.599666,-0.784195,-0.532603,0.534280437,-0.055722802,2.19548869
0.853646,4.0133,8.290771,-0.000809,0.331085,0.395367,0.599666,-0.784195,-0.532603,0.534134999,-0.055304376,2.198036942
0.827764,4.0059,8.565643,-0.133489,0.293963,0.414883,0.583452,-0.791446,-0.528562,0.533342776,-0.05506853,2.200922164
0.682819,4.236767,8.512841,-0.165334,0.227611,0.377306,0.583452,-0.791446,-0.528562,0.532394678,-0.055046469,2.203128663
0.487114,4.588179,8.591995,-0.256398,0.191606,0.326607,0.585966,-0.78605,-0.523136,0.531022168,-0.055019957,2.204911727
0.320474,4.982283,8.865792,-0.309178,0.121894,0.25809,0.585966,-0.78605,-0.523136,0.529397894,-0.055146599,2.206335427
0.198488,5.31843,8.878181,-0.347354,0.03574,0.201319,0.586334,-0.783687,-0.528231,0.527621689,-0.055470689,2.20713526
0.327107,5.469233,9.243964,-0.334817,-0.076531,0.150444,0.586334,-0.783687,-0.528231,0.525921999,-0.056179485,2.207593898
0.514815,5.462284,8.952765,-0.224158,-0.215892,0.09126,0.581119,-0.791634,-0.533872,0.524823995,-0.057315258,2.207613707
0.563418,5.529253,8.860782,-0.168926,-0.284675,0.048375,0.581119,-0.791634,-0.533872,0.524008577,-0.058668308,2.207109586
0.36866,5.581239,8.82191,-0.217345,-0.30396,0.033131,0.570815,-0.791542,-0.537075,0.522973299,-0.060040486,2.206671159
0.336027,5.506913,8.814333,-0.330443,-0.282738,0.036607,0.570815,-0.791542,-0.537075,0.521354279,-0.061356902,2.206123771
0.38474,5.420102,8.659236,-0.490056,-0.244302,0.060684,0.576079,-0.78632,-0.534069,0.518939946,-0.062538717,2.205681958
0.50854,5.247497,8.655505,-0.64463,-0.237565,0.087979,0.576079,-0.78632,-0.534069,0.515729778,-0.063788495,2.205476481
0.378791,5.110969,8.593534,-0.761079,-0.249037,0.086412,0.571684,-0.778886,-0.544515,0.511954385,-0.065055989,2.205107623
0.443756,4.744348,8.572255,-0.808397,-0.25536,0.078888,0.571684,-0.778886,-0.544515,0.507930754,-0.0663627,2.204828091
0.465759,4.462993,8.485119,-0.821524,-0.252596,0.064366,0.582731,-0.782305,-0.556832,0.503859789,-0.067593629,2.204291053
0.430324,4.357331,8.400978,-0.771223,-0.208464,0.02162,0.582731,-0.782305,-0.556832,0.500031408,-0.068559198,2.203883431
0.640221,4.222578,8.284779,-0.741433,-0.154862,-0.006615,0.563178,-0.772311,-0.575889,0.496366424,-0.069195388,2.20351199
0.764676,4.152871,8.256013,-0.72652,-0.091311,-0.061741,0.563178,-0.772311,-0.575889,0.492767728,-0.069450538,2.203022459
0.623777,4.291682,8.235198,-0.71957,-0.029376,-0.120315,0.5629,-0.772069,-0.570735,0.489226436,-0.069269931,2.202674685
0.418835,4.442605,8.297049,-0.751528,0.028043,-0.124416,0.5629,-0.772069,-0.570735,0.485502268,-0.06885456,2.202189588
0.133442,4.578848,8.342122,-0.761637,0.077033,-0.130127,0.568393,-0.764364,-0.570248,0.481735672,-0.068182276,2.201743098
-0.337649,4.840055,8.132878,-0.747305,0.119229,-0.157207,0.568393,-0.764364,-0.570248,0.47802777,-0.067290395,2.201320134
-1.271344,5.503581,7.853289,-0.69143,0.193006,-0.206546,0.568525,-0.756432,-0.567496,0.474617832,-0.065929823,2.200897101
-1.870556,6.161993,8.205977,-0.718134,0.273489,-0.244566,0.568525,-0.756432,-0.567496,0.471057498,-0.064155329,2.20043026
-1.69484,5.793868,8.623242,-0.862606,0.3401,-0.233871,0.585753,-0.744698,-0.586882,0.466777094,-0.062072173,2.199329603
-0.963003,4.981897,8.49087,-0.907971,0.363057,-0.203074,0.585753,-0.744698,-0.586882,0.462243023,-0.059994183,2.199234901
-0.236685,4.370541,8.250245,-0.867793,0.347788,-0.199122,0.572511,-0.741587,-0.582452,0.457929789,-0.057964574,2.199687029
0.125329,4.164356,8.465066,-0.851924,0.300203,-0.211248,0.572511,-0.741587,-0.582452,0.453686595,-0.056151682,2.199398945
0.288586,4.195538,8.97582,-0.88969,0.241327,-0.236133,0.576407,-0.729345,-0.597466,0.449284437,-0.054515103,2.19851223
0.735214,4.135674,9.490636,-0.89089,0.169767,-0.274576,0.576407,-0.729345,-0.597466,0.44487692,-0.053155962,2.197640054
0.895277,3.959135,9.570589,-0.850694,0.110181,-0.30507,0.589141,-0.734698,-0.594223,0.440700712,-0.051972856,2.19666602
0.949543,3.901831,9.492623,-0.802355,0.096287,-0.33495,0.589141,-0.734698,-0.594223,0.436756406,-0.050825423,2.195352694
1.009055,4.032223,9.413733,-0.811659,0.092784,-0.335013,0.585205,-0.722297,-0.609707,0.432780561,-0.049665791,2.193861013
1.033349,3.989097,9.278358,-0.893795,0.087598,-0.297876,0.585205,-0.722297,-0.609707,0.42836917,-0.048645942,2.192689024
0.916722,3.81148,9.089169,-1.016699,0.096412,-0.261603,0.592662,-0.716766,-0.598814,0.423349653,-0.047635955,2.191831072
0.818557,3.619895,8.921795,-1.135619,0.120562,-0.262269,0.592662,-0.716766,-0.598814,0.417716374,-0.046550133,2.190879064
0.719112,3.519489,8.772273,-1.221264,0.163888,-0.266274,0.590066,-0.702848,-0.637431,0.411665262,-0.045229581,2.189511616
0.555831,3.523694,8.631193,-1.292582,0.216459,-0.287565,0.590066,-0.702848,-0.637431,0.405241907,-0.04366505,2.188621096
0.327504,3.647102,8.539776,-1.328317,0.285395,-0.308247,0.594628,-0.688969,-0.616212,0.39865278,-0.041719147,2.187917274
0.003461,3.907192,8.59252,-1.355072,0.360623,-0.337509,0.594628,-0.688969,-0.616212,0.391912438,-0.039405066,2.18705351
-0.243002,4.284152,8.724621,-1.357824,0.412557,-0.371637,0.606176,-0.682095,-0.630873,0.385174539,-0.036759914,2.185945226
-0.234427,4.569304,8.679872,-1.2673,0.412903,-0.410582,0.606176,-0.682095,-0.630873,0.378878261,-0.034078703,2.184809278
-0.242329,4.481798,8.825451,-1.216026,0.410057,-0.392024,0.614925,-0.672322,-0.640478,0.372849612,-0.031419308,2.183545135
-0.111188,4.312671,8.76759,-1.141146,0.411337,-0.345859,0.614925,-0.672322,-0.640478,0.367170064,-0.028876275,2.182676257
0.039412,4.266738,8.798038,-1.011754,0.433749,-0.306944,0.615384,-0.667356,-0.645516,0.362147632,-0.026272365,2.182188752
0.2658,4.373847,9.020505,-0.871702,0.436832,-0.277171,0.615384,-0.667356,-0.645516,0.357802319,-0.023739839,2.181660964
0.497366,4.418505,9.285466,-0.707916,0.397117,-0.254489,0.626098,-0.659757,-0.644716,0.354292286,-0.021402982,2.180996639
0.557559,4.413789,9.438396,-0.535932,0.352499,-0.226328,0.626098,-0.659757,-0.644716,0.351621844,-0.019357769,2.180543935
0.549385,4.428625,9.500707,-0.370702,0.308369,-0.192097,0.629216,-0.657568,-0.652232,0.349794501,-0.017548682,2.180096241
0.358301,4.445092,9.656826,-0.242778,0.277005,-0.150625,0.629216,-0.657568,-0.652232,0.348584533,-0.015989387,2.179862436
0.296033,4.408704,9.727639,-0.162717,0.261243,-0.089806,0.62898,-0.651999,-0.644385,0.347790862,-0.014578113,2.179883607
0.269852,4.241589,9.844712,-0.126907,0.242398,-0.031564,0.62898,-0.651999,-0.644385,0.34715263,-0.013384604,2.18014799
0.317482,3.877534,9.92013,-0.099108,0.23223,0.013526,0.634208,-0.660158,-0.6494,0.346672105,-0.012286425,2.18070386
0.28168,3.540479,10.003483,-0.086651,0.213767,0.031188,0.634208,-0.660158,-0.6494,0.346232823,-0.011333859,2.181213531
0.231475,3.276729,10.058265,-0.117108,0.193979,0.029159,0.628473,-0.65424,-0.636712,0.345662886,-0.010442222,2.181808427
0.161951,3.034615,10.174768,-0.178847,0.162839,0.006589,0.628473,-0.65424,-0.636712,0.344765559,-0.009687018,2.182114994
0.120601,2.803993,10.161783,-0.268453,0.11757,-0.026205,0.62582,-0.659515,-0.639562,0.343442826,-0.009062015,2.182467725
0.084664,2.674159,10.071092,-0.360163,0.077121,-0.062313,0.62582,-0.659515,-0.639562,0.341643443,-0.008593953,2.182303804
0.044905,2.519771,9.974062,-0.461218,0.047064,-0.100235,0.627202,-0.65267,-0.660002,0.339358352,-0.008173607,2.181585287
0.007283,2.47654,9.818645,-0.566424,0.020584,-0.141061,0.627202,-0.65267,-0.660002,0.336531284,-0.007842466,2.180954001
-0.065682,2.574608,9.591755,-0.655944,-0.003324,-0.185624,0.636229,-0.643138,-0.674762,0.333274464,-0.007520452,2.179510613
-0.226065,2.66559,9.39973,-0.741458,-0.01435,-0.22363,0.636229,-0.643138,-0.674762,0.329575132,-0.007224252,2.178429974
-0.217554,2.76032,9.289906,-0.825175,-0.011479,-0.24416,0.622294,-0.639424,-0.657448,0.325476172,-0.006861032,2.177927756
-0.169135,2.758514,9.145997,-0.831751,-0.00359,-0.250343,0.622294,-0.639424,-0.657448,0.321325376,-0.006480061,2.176735224
-0.109259,2.800694,9.128284,-0.815199,0.001131,-0.246854,0.633654,-0.629704,-0.666897,0.317272493,-0.006055981,2.175248395
0.044329,2.832661,9.06525,-0.758589,-0.010363,-0.238234,0.633654,-0.629704,-0.666897,0.313486331,-0.005735556,2.174099898
0.04482,2.889315,9.007098,-0.686823,-0.008254,-0.232654,0.628522,-0.626994,-0.667151,0.310075572,-0.005390644,2.173252592
-0.013663,3.039544,8.961808,-0.618693,-0.004971,-0.227133,0.628522,-0.626994,-0.667151,0.306987804,-0.005069259,2.172163018
-0.179417,3.159529,9.039567,-0.571836,0.014262,-0.22144,0.640021,-0.617395,-0.679177,0.304148868,-0.004635736,2.17061039
-0.229131,3.214458,9.090663,-0.532633,0.026502,-0.211188,0.640021,-0.617395,-0.679177,0.301489962,-0.00419415,2.169642011
-0.27442,3.217946,9.14005,-0.48555,0.032096,-0.204075,0.639508,-0.611584,-0.666176,0.29908289,-0.003710188,2.168778945
-0.301028,3.183685,9.184573,-0.436415,0.035149,-0.207641,0.639508,-0.611584,-0.666176,0.29690409,-0.003237151,2.167838108
-0.300448,3.191438,9.239664,-0.385196,0.034144,-0.199817,0.645236,-0.609449,-0.673536,0.294997562,-0.002752176,2.166798868
-0.23553,3.182938,9.300529,-0.335905,0.026958,-0.197864,0.645236,-0.609449,-0.673536,0.293320334,-0.002336124,2.16589114
-0.117976,3.173046,9.41098,-0.293269,0.012422,-0.194116,0.642487,-0.609275,-0.671116,0.291873875,-0.001968628,2.165204422
-0.030806,3.147334,9.541785,-0.26215,-0.003666,-0.188687,0.642487,-0.609275,-0.671116,0.290564807,-0.001715101,2.164295454
-0.021582,3.114084,9.628232,-0.240645,-0.035855,-0.178472,0.632689,-0.606942,-0.681991,0.289381125,-0.001603731,2.163604967
-0.07522,3.092264,9.734693,-0.222373,-0.062183,-0.168912,0.632689,-0.606942,-0.681991,0.288270711,-0.001660996,2.162706837
-0.136277,3.06617,9.792148,-0.23164,-0.088715,-0.163052,0.645653,-0.609811,-0.681267,0.287131359,-0.001825057,2.161709137
-0.274127,3.085665,9.86438,-0.241617,-0.111668,-0.150096,0.645653,-0.609811,-0.681267,0.285925005,-0.002148327,2.160831463
-0.364119,3.050175,9.887592,-0.259025,-0.130419,-0.141183,0.635481,-0.601787,-0.681718,0.28464957,-0.002546105,2.160020094
-0.391406,2.999051,9.914361,-0.285365,-0.15102,-0.124212,0.635481,-0.601787,-0.681718,0.283225031,-0.003096774,2.159212373
-0.367308,2.894525,9.931396,-0.308804,-0.161762,-0.114275,0.643494,-0.596739,-0.681132,0.281700206,-0.003682402,2.158120808
-0.294122,2.74753,9.951171,-0.33814,-0.170307,-0.103245,0.643494,-0.596739,-0.681132,0.280012455,-0.004357269,2.157388782
-0.219836,2.623087,9.991736,-0.378541,-0.177987,-0.112584,0.643772,-0.59698,-0.686286,0.278140571,-0.005027563,2.15658895
-0.193177,2.564926,10.010295,-0.429499,-0.191495,-0.124753,0.643772,-0.59698,-0.686286,0.275997725,-0.005777688,2.155727071
-0.210984,2.543504,10.019948,-0.485701,-0.208052,-0.135556,0.63887,-0.591787,-0.68906,0.273591909,-0.006565129,2.154842904
-0.224421,2.547843,9.950102,-0.536122,-0.216911,-0.145159,0.63887,-0.591787,-0.68906,0.270918203,-0.007414354,2.153852202
-0.243976,2.557014,9.81214,-0.584829,-0.216581,-0.151149,0.626594,-0.581469,-0.69734,0.268018617,-0.008226892,2.152879059
-0.22832,2.519468,9.691496,-0.629156,-0.204831,-0.148214,0.626594,-0.581469,-0.69734,0.264881316,-0.009019551,2.151894448
-0.228102,2.506088,9.551173,-0.679647,-0.190687,-0.143211,0.632183,-0.579213,-0.702123,0.261507995,-0.009722884,2.150888719
-0.175478,2.405158,9.425306,-0.696968,-0.167253,-0.135776,0.632183,-0.579213,-0.702123,0.258031891,-0.010356492,2.150017782
-0.119011,2.369202,9.36542,-0.681288,-0.143603,-0.125041,0.622386,-0.576879,-0.712998,0.25465075,-0.010863667,2.149521934
-0.068625,2.402761,9.334757,-0.64179,-0.120991,-0.120187,0.622386,-0.576879,-0.712998,0.25144992,-0.01129869,2.148788651
-0.046205,2.470591,9.333396,-0.584317,-0.095026,-0.112377,0.635633,-0.56923,-0.711868,0.248550787,-0.011586827,2.14772194
-0.022619,2.497385,9.423193,-0.529935,-0.083581,-0.104212,0.635633,-0.56923,-0.711868,0.245908235,-0.011864282,2.147114426
-0.015283,2.574331,9.506009,-0.501353,-0.073215,-0.092408,0.634078,-0.559368,-0.724674,0.243422816,-0.012074315,2.146167061
-0.026161,2.5828,9.583908,-0.50388,-0.077391,-0.081481,0.634078,-0.559368,-0.724674,0.240909366,-0.012352049,2.145678717
-0.012048,2.525347,9.639745,-0.516246,-0.079439,-0.078877,0.631003,-0.556229,-0.714466,0.238350817,-0.012614669,2.145363458
-0.002452,2.497601,9.625522,-0.536558,-0.084355,-0.074558,0.631003,-0.556229,-0.714466,0.235673917,-0.012936892,2.144902028
0.027315,2.431607,9.637696,-0.566089,-0.093997,-0.069524,0.633981,-0.55392,-0.719404,0.232865594,-0.01328259,2.144428886
0.043271,2.307067,9.607538,-0.608553,-0.106959,-0.07004,0.633981,-0.55392,-0.719404,0.229829086,-0.013722622,2.143965362
0.062169,2.18283,9.552202,-0.642985,-0.112456,-0.072736,0.64479,-0.551771,-0.723873,0.226636336,-0.014155883,2.143221101
0.10027,2.089456,9.416984,-0.652424,-0.12303,-0.080325,0.64479,-0.551771,-0.723873,0.22338182,-0.014665694,2.142692301
0.111998,1.994028,9.31562,-0.640309,-0.119882,-0.084055,0.62917,-0.546125,-0.722119,0.220205686,-0.015130091,2.142556601
0.087436,2.016902,9.26857,-0.607312,-0.118094,-0.091039,0.62917,-0.546125,-0.722119,0.217177922,-0.015607509,2.141984081
0.102246,2.01395,9.208852,-0.585348,-0.121152,-0.100686,0.638244,-0.539319,-0.73951,0.214275735,-0.016058572,2.140939588
0.132577,2.007492,9.22462,-0.574882,-0.115201,-0.103326,0.638244,-0.539319,-0.73951,0.211411526,-0.016512218,2.140312875
0.101099,2.093497,9.294304,-0.574787,-0.116628,-0.110965,0.63637,-0.534543,-0.749855,0.208564265,-0.016935914,2.13951772
0.085891,2.145987,9.389645,-0.578603,-0.119243,-0.113381,0.63637,-0.534543,-0.749855,0.205682882,-0.017402563,2.138840218
0.070287,2.173214,9.468588,-0.56533,-0.123582,-0.108454,0.632836,-0.536369,-0.734612,0.202885467,-0.017870661,2.138692894
0.082175,2.195154,9.526087,-0.533955,-0.127733,-0.104435,0.632836,-0.536369,-0.734612,0.200227277,-0.018391624,2.138053318
0.077945,2.223531,9.528635,-0.488952,-0.120775,-0.105558,0.644284,-0.524048,-0.744001,0.197808581,-0.018845079,2.136750464
0.041604,2.277372,9.541506,-0.445683,-0.119603,-0.100726,0.644284,-0.524048,-0.744001,0.19559182,-0.019332898,2.136139564
0.03313,2.293101,9.566846,-0.414038,-0.122006,-0.088636,0.636918,-0.526975,-0.754833,0.193549802,-0.019817227,2.135835702
0.041857,2.239256,9.545144,-0.384675,-0.113232,-0.079369,0.636918,-0.526975,-0.754833,0.191636414,-0.020296722,2.135337724
0.03075,2.219679,9.497858,-0.351659,-0.112191,-0.075254,0.634531,-0.516388,-0.752181,0.189904069,-0.0207448,2.134651129
0.073208,2.163865,9.479824,-0.318467,-0.106014,-0.068865,0.634531,-0.516388,-0.752181,0.188320915,-0.021200454,2.134213191
0.105246,2.142581,9.47859,-0.294512,-0.098511,-0.062497,0.637328,-0.519286,-0.757235,0.186874124,-0.021596329,2.133856236
0.115603,2.077362,9.496318,-0.287717,-0.093792,-0.05946,0.637328,-0.519286,-0.757235,0.185443808,-0.022001927,2.133477185
0.112004,2.039746,9.546,-0.291867,-0.098588,-0.065323,0.642313,-0.513823,-0.749077,0.184010124,-0.02239508,2.132827032
0.101991,1.965701,9.528542,-0.305381,-0.097104,-0.062139,0.642313,-0.513823,-0.749077,0.182492106,-0.022815617,2.132432972
0.110845,1.910794,9.525303,-0.317342,-0.095295,-0.057171,0.635031,-0.506096,-0.754524,0.180930769,-0.023201859,2.131930596
0.134871,1.842384,9.53587,-0.324844,-0.08926,-0.054304,0.635031,-0.506096,-0.754524,0.179314663,-0.023592044,2.131583415
0.114001,1.838733,9.534912,-0.339854,-0.078539,-0.057682,0.635218,-0.50894,-0.759735,0.177641607,-0.023898315,2.131370519
0.097319,1.787823,9.606007,-0.356035,-0.072325,-0.058824,0.635218,-0.50894,-0.759735,0.175869923,-0.024202351,2.131017282
0.101291,1.757851,9.659382,-0.363266,-0.076092,-0.058344,0.632608,-0.508887,-0.759892,0.174080226,-0.024497679,2.130877115
0.11054,1.723585,9.711005,-0.358663,-0.073857,-0.055472,0.632608,-0.508887,-0.759892,0.172295208,-0.024813409,2.130540161
0.108324,1.733541,9.763528,-0.346737,-0.085647,-0.050441,0.633525,-0.498957,-0.769964,0.1705855,-0.025160066,2.129810683
0.117115,1.765026,9.806952,-0.328849,-0.088858,-0.044944,0.633525,-0.498957,-0.769964,0.168948782,-0.025559764,2.129514029
0.079139,1.74587,9.855393,-0.313592,-0.092094,-0.042088,0.636045,-0.501613,-0.769866,0.167405544,-0.025948973,2.129270695
0.03469,1.771659,9.881109,-0.296185,-0.098385,-0.040936,0.636045,-0.501613,-0.769866,0.165932031,-0.026399879,2.128987132
0.027121,1.80519,9.840647,-0.268862,-0.10504,-0.033673,0.626069,-0.504487,-0.780855,0.164613155,-0.02686295,2.129164981
-0.006349,1.819686,9.804331,-0.232125,-0.108462,-0.031555,0.626069,-0.504487,-0.780855,0.163459143,-0.027371975,2.128920669
-0.009632,1.862147,9.790465,-0.202634,-0.109086,-0.022352,0.633893,-0.496595,-0.775059,0.162467394,-0.027859324,2.12826933
-0.016309,1.8427,9.787263,-0.186787,-0.106581,-0.007014,0.633893,-0.496595,-0.775059,0.161536836,-0.028379363,2.12814871
0.0302,1.747114,9.780968,-0.193902,-0.103034,0.00319,0.620703,-0.496209,-0.773265,0.160588005,-0.028862592,2.128456988
0.043443,1.632366,9.806321,-0.197273,-0.106773,0.007931,0.620703,-0.496209,-0.773265,0.159602976,-0.029395703,2.128410998
0.067898,1.543686,9.818819,-0.193412,-0.111449,0.00338,0.623355,-0.490935,-0.770416,0.158654686,-0.029916963,2.128097537
0.095989,1.490396,9.793756,-0.180011,-0.117445,-0.007873,0.623355,-0.490935,-0.770416,0.157758581,-0.030490409,2.127966079
0.097529,1.451297,9.754404,-0.167972,-0.130816,-0.013742,0.621439,-0.491486,-0.783454,0.156940999,-0.031095026,2.127726689
0.103973,1.439049,9.698713,-0.179503,-0.132934,-0.018442,0.621439,-0.491486,-0.783454,0.156049589,-0.031736959,2.12753191
0.109747,1.382501,9.669732,-0.199387,-0.133027,-0.022539,0.620599,-0.48271,-0.762668,0.155075782,-0.032344944,2.127081458
0.137786,1.31957,9.617303,-0.21373,-0.125184,-0.032162,0.620599,-0.48271,-0.762668,0.154015459,-0.032938409,2.126826064
0.152729,1.318821,9.614644,-0.220566,-0.114594,-0.038607,0.621342,-0.486038,-0.778185,0.152938608,-0.033444834,2.126539795
0.137175,1.30223,9.70516,-0.226404,-0.109214,-0.048127,0.621342,-0.486038,-0.778185,0.15181739,-0.033947803,2.126218864
0.158669,1.358236,9.741898,-0.23621,-0.111677,-0.055011,0.632338,-0.486733,-0.787864,0.150663797,-0.034425954,2.125502441
0.169371,1.356219,9.776589,-0.252586,-0.113347,-0.057692,0.632338,-0.486733,-0.787864,0.149413704,-0.034942955,2.125132274
0.200721,1.354821,9.784886,-0.258517,-0.119178,-0.059675,0.622168,-0.478711,-0.788316,0.148150662,-0.035457339,2.124677371
0.181086,1.353252,9.761832,-0.257845,-0.122977,-0.061358,0.622168,-0.478711,-0.788316,0.146875506,-0.036020208,2.124283275
0.168953,1.361464,9.747093,-0.261787,-0.125199,-0.061938,0.62725,-0.478696,-0.785426,0.145596773,-0.036563546,2.123788457
0.188074,1.358951,9.748148,-0.275011,-0.127675,-0.066199,0.62725,-0.478696,-0.785426,0.144237195,-0.037147167,2.123368443
0.170261,1.3867,9.70958,-0.290163,-0.12505,-0.065835,0.616253,-0.478001,-0.775747,0.142819603,-0.037691588,2.123450596
0.165934,1.363857,9.685858,-0.298814,-0.12322,-0.06549,0.616253,-0.478001,-0.775747,0.141341169,-0.038254841,2.12303889
0.171643,1.390069,9.648863,-0.295801,-0.11217,-0.065905,0.628534,-0.466405,-0.800594,0.139890154,-0.038727703,2.121638332
0.159777,1.414626,9.660838,-0.278494,-0.103196,-0.061881,0.628534,-0.466405,-0.800594,0.138512426,-0.039195504,2.121260015
0.157604,1.432057,9.697571,-0.270179,-0.088191,-0.049491,0.624959,-0.473558,-0.788043,0.137190949,-0.039570506,2.121395574
0.159517,1.432721,9.728659,-0.270131,-0.073828,-0.039835,0.624959,-0.473558,-0.788043,0.135850134,-0.039908855,2.121147807
0.157218,1.393861,9.747901,-0.270325,-0.062461,-0.039841,0.614935,-0.473707,-0.796397,0.134525551,-0.040163726,2.121367841
0.17571,1.361355,9.757566,-0.268913,-0.058056,-0.035637,0.614935,-0.473707,-0.796397,0.133189675,-0.040427375,2.12115231
0.196698,1.316174,9.747231,-0.260398,-0.056238,-0.03192,0.625876,-0.463628,-0.798115,0.131908795,-0.040650167,2.120223987
0.199708,1.31329,9.77061,-0.250776,-0.056616,-0.031925,0.625876,-0.463628,-0.798115,0.130662891,-0.040909645,2.12002851
0.217644,1.264884,9.767938,-0.245891,-0.054938,-0.030735,0.625779,-0.45818,-0.792847,0.129455594,-0.041129469,2.119484333
0.210236,1.228967,9.766864,-0.251178,-0.050602,-0.031159,0.625779,-0.45818,-0.792847,0.128207404,-0.041360115,2.119297147
0.225001,1.20839,9.753314,-0.261864,-0.052836,-0.025297,0.620746,-0.460918,-0.79837,0.1269212,-0.041577112,2.11940328
0.217803,1.155736,9.740618,-0.270343,-0.050875,-0.028813,0.620746,-0.460918,-0.79837,0.125576773,-0.041811056,2.119228171
0.220857,1.138099,9.736516,-0.277368,-0.04834,-0.03361,0.625404,-0.45249,-0.782425,0.124212396,-0.041997405,2.118693315
0.216485,1.147927,9.686686,-0.287414,-0.046933,-0.032304,0.625404,-0.45249,-0.782425,0.122783285,-0.042210125,2.118503929
0.224999,1.137118,9.696214,-0.29504,-0.05288,-0.035135,0.608153,-0.455688,-0.804189,0.121334172,-0.042424016,2.118871932
0.246686,1.113589,9.672591,-0.305264,-0.054643,-0.042016,0.608153,-0.455688,-0.804189,0.119818126,-0.042669723,2.118630291
