ax,ay,az,gx,gy,gz,mx,my,mz,phi,theta,psi
-0.6587646,0.23884048,0.36718655,-0.106175184,-0.2561581,-0.39503628,0.89470327,0.13669673,0.21308118,0.28567463,0.61554015,-0.67747676
-0.6558757,0.2497301,0.36113238,-0.12683204,-0.2528384,-0.41370302,0.89470327,0.13669673,0.21308118,0.28377646,0.61778,-0.67879283
-0.6524605,0.259516,0.35999608,-0.14915144,-0.254731,-0.42807713,0.8971914,0.12946765,0.23007232,0.2813123,0.620033,-0.68003476
-0.6482398,0.25971428,0.3594371,-0.15965259,-0.26461464,-0.42315105,0.8971914,0.12946765,0.23007232,0.27864605,0.62205625,-0.6816459
-0.66317195,0.24497518,0.35123813,-0.15767187,-0.2844494,-0.40559673,0.8990406,0.14672634,0.2094692,0.27607986,0.62361115,-0.6834444
-0.66763604,0.23619276,0.33283496,-0.14514163,-0.30796346,-0.38845384,0.8990406,0.14672634,0.2094692,0.27384815,0.62460357,-0.6845789
-0.66583306,0.23375885,0.29343486,-0.12994814,-0.33296236,-0.3778071,0.88337636,0.15286127,0.23841262,0.27194571,0.625044,-0.68570244
-0.64759016,0.23076071,0.24537373,-0.113751665,-0.35307884,-0.37148994,0.88337636,0.15286127,0.23841262,0.27039444,0.62503505,-0.68673456
-0.62282044,0.2285239,0.2114402,-0.100358695,-0.36371794,-0.37509182,0.8870845,0.15014106,0.2343201,0.26907387,0.62482095,-0.6877756
-0.61329985,0.2221387,0.21501744,-0.08719185,-0.3663304,-0.38326725,0.8870845,0.15014106,0.2343201,0.26798043,0.6245729,-0.68913686
-0.56964374,0.20938616,0.25724375,-0.077292174,-0.37008098,-0.38990384,0.8956629,0.14399144,0.20060539,0.26703817,0.6242728,-0.69051814
-0.6180016,0.22822408,0.25066817,-0.06710939,-0.38443902,-0.4025515,0.8956629,0.14399144,0.20060539,0.2662151,0.62370884,-0.69239616
-0.6519603,0.22834544,0.30898952,-0.053389065,-0.38830233,-0.40515563,0.9000001,0.15402105,0.19699341,0.26564673,0.62308013,-0.6945523
-0.66118276,0.22993952,0.36139536,-0.036096826,-0.38511416,-0.39197865,0.9000001,0.15402105,0.19699341,0.26553333,0.62246525,-0.696203
-0.65715915,0.23318835,0.35540938,-0.02258191,-0.37854123,-0.37191,0.89110243,0.15773942,0.23486674,0.26582682,0.6219279,-0.69735575
-0.6420728,0.22702605,0.3399824,-0.01745803,-0.37155402,-0.34901845,0.89110243,0.15773942,0.23486674,0.26638615,0.6214544,-0.6980022
-0.6180281,0.21166143,0.3237883,-0.022424677,-0.36927754,-0.33602363,0.8918779,0.15726629,0.21784753,0.26691753,0.6209929,-0.69842184
-0.6126636,0.19878969,0.27539515,-0.03576033,-0.37167102,-0.33592203,0.8918779,0.15726629,0.21784753,0.267177,0.6204739,-0.69878626
-0.6107066,0.1871142,0.2368176,-0.051956974,-0.3720341,-0.34094334,0.88779163,0.15233622,0.22165108,0.26706165,0.6199696,-0.6991105
-0.6065875,0.16993266,0.21459317,-0.06515986,-0.37366584,-0.35160506,0.88779163,0.15233622,0.22165108,0.26661208,0.6194612,-0.69982445
-0.6081729,0.16377214,0.20948136,-0.07377068,-0.37523282,-0.36130372,0.88854754,0.16763678,0.22222745,0.26591262,0.6189623,-0.70115924
-0.60978943,0.16140945,0.20330393,-0.0772341,-0.3768987,-0.36984536,0.88854754,0.16763678,0.22222745,0.26509702,0.61844563,-0.7022834
-0.6064322,0.16201784,0.19684947,-0.0781026,-0.37938887,-0.3747861,0.8877232,0.15500452,0.22600293,0.2642231,0.61789614,-0.70313966
-0.6064312,0.17189203,0.1848365,-0.077798784,-0.37846643,-0.37446254,0.8877232,0.15500452,0.22600293,0.26336652,0.61735994,-0.70437
-0.599759,0.17964536,0.21662724,-0.0726835,-0.37394452,-0.36882213,0.8969989,0.15893643,0.18841696,0.2626486,0.6169075,-0.7055938
-0.59861445,0.18194821,0.21309209,-0.06438023,-0.36863804,-0.35823366,0.8969989,0.15893643,0.18841696,0.2621851,0.6165222,-0.706419
-0.59589326,0.18884063,0.22362137,-0.05769429,-0.361865,-0.34720254,0.894946,0.14968263,0.22207218,0.26193088,0.61624587,-0.7065053
-0.5911185,0.1854783,0.24378347,-0.05314033,-0.35660243,-0.33889273,0.894946,0.14968263,0.22207218,0.26183653,0.61604905,-0.7068478
-0.6035282,0.18246838,0.26243877,-0.048040725,-0.3497423,-0.3311587,0.8816539,0.16750455,0.2132017,0.26189387,0.61598325,-0.7075881
-0.60990167,0.17508325,0.2735641,-0.04366771,-0.3455197,-0.32616478,0.8816539,0.16750455,0.2132017,0.26208997,0.61597675,-0.7075964
-0.60119283,0.1693339,0.26730382,-0.043212447,-0.34647202,-0.32576668,0.88602054,0.15387411,0.18319476,0.26228824,0.6159548,-0.7074021
-0.59389234,0.16399975,0.2795323,-0.043249235,-0.34201995,-0.32305238,0.88602054,0.15387411,0.18319476,0.26251718,0.6160113,-0.70732427
-0.58185375,0.15538117,0.282593,-0.044839114,-0.34067518,-0.32705426,0.8895154,0.16704515,0.20095384,0.26267993,0.6161192,-0.7076837
-0.5685256,0.15520693,0.29366934,-0.052387033,-0.3557267,-0.34209365,0.8895154,0.16704515,0.20095384,0.26258308,0.6159513,-0.7080908
-0.5490563,0.16449021,0.28198266,-0.07228612,-0.4072503,-0.38750163,0.8843944,0.16537501,0.2303828,0.26171166,0.61486,-0.70959747
-0.56151634,0.17666596,0.21105874,-0.09650481,-0.45205912,-0.43779936,0.8843944,0.16537501,0.2303828,0.25997895,0.6129867,-0.71258104
-0.55975467,0.17582566,0.172853,-0.10476681,-0.4697128,-0.4619772,0.8912587,0.16598135,0.16265768,0.25789887,0.61082304,-0.7162713
-0.5566255,0.17390004,0.15155971,-0.09777014,-0.47267675,-0.46475458,0.8912587,0.16598135,0.16265768,0.25596076,0.60859144,-0.7199241
-0.5581762,0.18577243,0.16042781,-0.08685087,-0.47211182,-0.46250844,0.8819065,0.17260408,0.21339333,0.2542616,0.60636306,-0.723312
-0.56009054,0.19136098,0.18708766,-0.079166636,-0.47642708,-0.46381575,0.8819065,0.17260408,0.21339333,0.2527244,0.6040379,-0.7269429
-0.49416062,0.19551712,0.06579101,-0.0697506,-0.45029658,-0.4518757,0.8796122,0.17971464,0.19214779,0.25148487,0.6022258,-0.73030066
-0.40124178,0.16790523,0.03612888,-0.014565844,-0.23112357,-0.42222813,0.8796122,0.17971464,0.19214779,0.25187445,0.60490084,-0.7318075
-0.70229703,0.28171083,0.4780928,-0.016531438,-0.23283741,-0.39862573,0.8817712,0.17794067,0.22209531,0.25235045,0.60747397,-0.73262703
-0.68103236,0.255575,0.4622954,-0.00870024,-0.2589835,-0.3792042,0.8817712,0.17794067,0.22209531,0.25307637,0.60943776,-0.7333448
-0.58446366,0.2572056,0.45577407,-0.01305794,-0.26199263,-0.3535939,0.86114895,0.18276104,0.19946247,0.2538507,0.6112696,-0.73383355
-0.58242965,0.25627747,0.3442031,-0.026068665,-0.28360704,-0.35377574,0.86114895,0.18276104,0.19946247,0.2543338,0.6126418,-0.7341236
-0.5919545,0.24815436,0.28556812,-0.031305335,-0.28153217,-0.3496353,0.8745582,0.1753762,0.21722823,0.25472867,0.61404836,-0.73409975
-0.5690469,0.2249008,0.30759227,-0.029909477,-0.2791482,-0.3419857,0.8745582,0.1753762,0.21722823,0.2552098,0.61547786,-0.7341105
-0.5496367,0.20492528,0.31512153,-0.033019774,-0.29029095,-0.3553372,0.8795341,0.19026929,0.20529741,0.25551975,0.6167236,-0.734851
-0.5592371,0.19417723,0.30875897,-0.035231672,-0.31213382,-0.38180676,0.8795341,0.19026929,0.20529741,0.2556007,0.6175865,-0.7358916
-0.5711159,0.19904132,0.28818345,-0.04160165,-0.33154327,-0.40762854,0.878459,0.17253748,0.20887959,0.25535697,0.61812437,-0.7372099
-0.5809835,0.20504509,0.2606206,-0.05018428,-0.34972897,-0.42751154,0.878459,0.17253748,0.20887959,0.2547934,0.6183415,-0.7394341
-0.58702165,0.22127926,0.2522496,-0.06089366,-0.3656073,-0.43417677,0.8833108,0.1848808,0.19685465,0.25393528,0.618251,-0.7420466
-0.5896471,0.22164491,0.25299942,-0.072114885,-0.38242036,-0.43856463,0.8833108,0.1848808,0.19685465,0.25280234,0.6178144,-0.744676
-0.6067604,0.22189637,0.24946725,-0.08320221,-0.40288308,-0.4436471,0.8756418,0.18522167,0.2048465,0.25137362,0.6169652,-0.7474469
-0.6189088,0.22958565,0.24707603,-0.094880946,-0.42189357,-0.44811714,0.8756418,0.18522167,0.2048465,0.24965842,0.61572367,-0.7504748
-0.6165372,0.22019544,0.21729279,-0.09615692,-0.4286425,-0.43050545,0.85839045,0.2006633,0.19987702,0.2480098,0.61429054,-0.75341713
-0.6203131,0.21402009,0.18604028,-0.09692105,-0.41044098,-0.41358042,0.85839045,0.2006633,0.19987702,0.2464837,0.61317873,-0.75563145
-0.6210939,0.20691025,0.19759595,-0.10054468,-0.3811326,-0.3988748,0.86152697,0.19041133,0.1997515,0.24500683,0.6126377,-0.7571243
-0.62243456,0.20578237,0.25125957,-0.10259898,-0.35654193,-0.3854599,0.86152697,0.19041133,0.1997515,0.24360687,0.61256886,-0.75846803
-0.6237648,0.19595665,0.3005488,-0.10836916,-0.33531344,-0.38209113,0.87263215,0.19802341,0.20506948,0.24212871,0.6129385,-0.7596487
-0.60777974,0.19787215,0.3414036,-0.115447804,-0.3292055,-0.37958607,0.87263215,0.19802341,0.20506948,0.2405324,0.61342263,-0.76073873
-0.6026087,0.1832934,0.3600422,-0.11680987,-0.33282727,-0.37612876,0.87782156,0.19702524,0.17128706,0.23891714,0.61382425,-0.76178885
-0.5961532,0.18277223,0.3625971,-0.12436955,-0.33915314,-0.3841045,0.87782156,0.19702524,0.17128706,0.23709433,0.6141083,-0.7630249
-0.6068805,0.17979175,0.37541676,-0.13054064,-0.34428915,-0.3906809,0.8737842,0.20520055,0.18833762,0.23509017,0.6143046,-0.7644919
-0.6031251,0.18425468,0.41257823,-0.14588933,-0.3581752,-0.40604767,0.8737842,0.20520055,0.18833762,0.23266321,0.6142417,-0.7662897
-0.59596527,0.17068066,0.42855763,-0.15798372,-0.37480724,-0.41244859,0.88008785,0.21357375,0.21892762,0.22992063,0.61384505,-0.7682923
-0.5960889,0.16072583,0.3961835,-0.15962104,-0.40356374,-0.40475023,0.88008785,0.21357375,0.21892762,0.22716476,0.6128152,-0.77024984
-0.6201694,0.15544975,0.36872816,-0.16421217,-0.42281577,-0.41336927,0.8714818,0.22019747,0.17588991,0.22423574,0.6114009,-0.77261066
-0.6316883,0.1576173,0.30594492,-0.16263741,-0.43252164,-0.40914,0.8714818,0.22019747,0.17588991,0.22136517,0.609761,-0.77476573
-0.6331232,0.14303473,0.27735758,-0.147699,-0.43229616,-0.39513725,0.86286426,0.2053563,0.18756306,0.21888924,0.6080884,-0.7762065
-0.62656873,0.12527797,0.2543286,-0.12241104,-0.42411408,-0.38084817,0.86286426,0.2053563,0.18756306,0.21704057,0.6065508,-0.7776989
-0.6267342,0.1302801,0.26544392,-0.09981622,-0.41501006,-0.37834564,0.87018335,0.22624324,0.21012324,0.21568078,0.60520303,-0.7792773
-0.6324628,0.12494312,0.25871348,-0.079598375,-0.40286198,-0.37701824,0.87018335,0.22624324,0.21012324,0.21476993,0.60410076,-0.78059936
-0.6214658,0.1301609,0.32102644,-0.07359515,-0.39689013,-0.38687485,0.8527576,0.22603068,0.19181085,0.21392563,0.60315037,-0.7821803
-0.62338513,0.11137715,0.32820725,-0.057624448,-0.39807045,-0.36992595,0.8527576,0.22603068,0.19181085,0.21352038,0.6021316,-0.7833271
-0.6239261,0.09864992,0.34188294,-0.049974762,-0.3975452,-0.37096512,0.8659339,0.22712386,0.14587796,0.21326183,0.6011318,-0.7845899
-0.605747,0.09791733,0.34125483,-0.04359003,-0.39703727,-0.36699635,0.8659339,0.22712386,0.14587796,0.21316805,0.6001278,-0.78566766
-0.60583407,0.078537256,0.362123,-0.038015924,-0.3990228,-0.36603203,0.8463187,0.2229931,0.16992289,0.21318743,0.599084,-0.7866025
-0.6134901,0.07809812,0.3615203,-0.04349498,-0.39574873,-0.3832625,0.8463187,0.2229931,0.16992289,0.21300274,0.5981426,-0.7880266
-0.614963,0.09661324,0.41138804,-0.06166544,-0.39784926,-0.40980273,0.86708724,0.23430103,0.12914616,0.2122747,0.59722114,-0.79029167
-0.60893637,0.094437756,0.41209865,-0.07445283,-0.41138855,-0.41143712,0.86708724,0.23430103,0.12914616,0.21126975,0.59600854,-0.792377
-0.621566,0.083524674,0.3741176,-0.08000676,-0.4192176,-0.4149215,0.8545581,0.23018494,0.15796405,0.2101162,0.5946397,-0.79434896
-0.6192752,0.10069296,0.36584473,-0.09231499,-0.41821682,-0.43273538,0.8545581,0.23018494,0.15796405,0.20861498,0.5933229,-0.79691076
-0.5963187,0.11536846,0.37246644,-0.10295807,-0.42105824,-0.43425894,0.85512984,0.23771672,0.153997,0.2068752,0.5919508,-0.7995442
-0.5900326,0.093225315,0.35176027,-0.09935797,-0.43339887,-0.4145938,0.85512984,0.23771672,0.153997,0.2053257,0.5902684,-0.80175436
-0.6028408,0.086811066,0.311239,-0.08896436,-0.4370626,-0.40703905,0.8446549,0.24285445,0.14915955,0.20402575,0.5884967,-0.80390096
-0.6065962,0.09500474,0.30404258,-0.07640068,-0.43231726,-0.40450054,0.8446549,0.24285445,0.14915955,0.20301858,0.58681154,-0.8058795
-0.6248852,0.10384308,0.31879127,-0.06592268,-0.42450553,-0.40431806,0.860368,0.24982297,0.13345999,0.20222872,0.5852964,-0.807973
-0.6278904,0.112643056,0.315562,-0.059546348,-0.41252542,-0.3963127,0.860368,0.24982297,0.13345999,0.20163976,0.5840103,-0.8097049
-0.60406923,0.11968197,0.337965,-0.05874786,-0.40398204,-0.38264847,0.8400556,0.23561068,0.16137779,0.20114627,0.58287907,-0.8105216
-0.58981806,0.116382726,0.32277024,-0.057629116,-0.39454684,-0.36418268,0.8400556,0.23561068,0.16137779,0.20079699,0.5819094,-0.8115015
-0.5919722,0.112851836,0.30809796,-0.05747058,-0.38474157,-0.35216397,0.8488667,0.2503343,0.14545023,0.2005158,0.5811329,-0.81254065
-0.598835,0.10883962,0.30604684,-0.05694323,-0.37904388,-0.33954367,0.8488667,0.2503343,0.14545023,0.20033368,0.58044326,-0.8129406
-0.60131156,0.09568395,0.29853773,-0.055414602,-0.37526995,-0.3318466,0.8410722,0.24812444,0.15334797,0.2002194,0.5798255,-0.8131627
-0.59944713,0.083893865,0.2936387,-0.052269388,-0.37149027,-0.3288555,0.8410722,0.24812444,0.15334797,0.20020099,0.57927495,-0.81330884
-0.5976751,0.0850704,0.28435767,-0.049828358,-0.37152466,-0.32923165,0.84249616,0.24462841,0.11921203,0.20022011,0.5787319,-0.8134754
-0.5893719,0.08427258,0.27015364,-0.04862297,-0.37249658,-0.326596,0.84249616,0.24462841,0.11921203,0.20028937,0.57815576,-0.8135761
-0.5752115,0.080992356,0.25882196,-0.04734102,-0.37285712,-0.32315046,0.848295,0.24280255,0.14941728,0.2003938,0.5775715,-0.81337905
-0.5640648,0.07672928,0.23632479,-0.040272456,-0.37550923,-0.32074952,0.848295,0.24280255,0.14941728,0.2006667,0.5769206,-0.8133638
-0.5508423,0.07216127,0.23609507,-0.025608359,-0.37512007,-0.3160604,0.8450426,0.2426174,0.14064914,0.2012583,0.57627714,-0.8132769
-0.5573311,0.07334311,0.22421753,-0.0069960803,-0.37410647,-0.30858752,0.8450426,0.2426174,0.14064914,0.20229074,0.57563233,-0.8129977
-0.5678829,0.07363774,0.23988986,0.011085309,-0.37062103,-0.29714587,0.8415952,0.24255177,0.13613546,0.20375147,0.5750476,-0.81261015
-0.5849949,0.07910512,0.27185166,0.024422824,-0.36783534,-0.28494978,0.8415952,0.24255177,0.13613546,0.20557186,0.5744872,-0.8118068
-0.58733046,0.0757005,0.32827866,0.03195356,-0.36494872,-0.27431768,0.8560977,0.23712507,0.13272178,0.20759657,0.57397234,-0.8106749
-0.5796929,0.07423866,0.35296452,0.037026837,-0.3700438,-0.26546392,0.8560977,0.23712507,0.13272178,0.20978305,0.57332146,-0.8094659
-0.570742,0.07948559,0.34587157,0.03878796,-0.37732026,-0.25893244,0.8397459,0.22529308,0.15673858,0.21202257,0.5725058,-0.80770314
-0.56514573,0.08266945,0.316283,0.037610397,-0.37916565,-0.25548884,0.8397459,0.22529308,0.15673858,0.2142653,0.5716355,-0.8063189
-0.561294,0.09319499,0.29929936,0.033270434,-0.37406254,-0.25159428,0.83011186,0.22728941,0.13053012,0.21642604,0.5708734,-0.8052981
-0.5546633,0.09454705,0.29941082,0.030133061,-0.3621472,-0.24685577,0.83011186,0.22728941,0.13053012,0.21857417,0.57033587,-0.8036735
-0.5605499,0.10389105,0.30860865,0.023701087,-0.3513213,-0.24497616,0.84664774,0.21753897,0.1569665,0.2205953,0.5700247,-0.8015915
-0.55054593,0.10770567,0.32064188,0.013632216,-0.33833942,-0.2407848,0.84664774,0.21753897,0.1569665,0.22245601,0.5699676,-0.79974985
-0.54819465,0.11074748,0.33300412,0.00018751249,-0.32992935,-0.23835552,0.85546875,0.22437525,0.13224119,0.22404116,0.57009184,-0.7984084
-0.54625505,0.11546137,0.32654607,-0.017790046,-0.32395476,-0.2406832,0.85546875,0.22437525,0.13224119,0.22526473,0.5703314,-0.79650784
-0.5474376,0.1228313,0.30840683,-0.037040222,-0.31289583,-0.24995862,0.850801,0.21980074,0.14881116,0.22603367,0.57083344,-0.79479325
-0.60623354,0.15251902,0.3230635,-0.057701573,-0.30678165,-0.26033434,0.850801,0.21980074,0.14881116,0.22633976,0.57147956,-0.7932414
-0.60829633,0.14692634,0.34350955,-0.06734431,-0.31994757,-0.21353817,0.8688179,0.21177235,0.14555925,0.2266748,0.5717399,-0.79044795
-0.54094046,0.09505536,0.2686025,-0.06967049,-0.32631412,-0.19105393,0.8688179,0.21177235,0.14555925,0.22709337,0.5718028,-0.787496
-0.51857764,0.10279261,0.19167042,-0.079018,-0.31830454,-0.19787872,0.8489518,0.20254207,0.16941422,0.22727416,0.57205665,-0.78428566
-0.5473108,0.0924575,0.18074858,-0.09600809,-0.30660665,-0.20143029,0.8489518,0.20254207,0.16941422,0.22711036,0.57255876,-0.7814745
-0.5518136,0.079304576,0.2030226,-0.12080249,-0.2960677,-0.21320537,0.8476938,0.20639268,0.122543275,0.22635904,0.57332766,-0.7795173
-0.5449151,0.08175899,0.22520578,-0.15087932,-0.28882843,-0.22419447,0.8476938,0.20639268,0.122543275,0.22495094,0.5742638,-0.7771207
-0.54831415,0.07500401,0.24996603,-0.17956233,-0.28436178,-0.23041926,0.8652463,0.20915598,0.14094979,0.22289968,0.5753244,-0.7750281
-0.5389533,0.06704915,0.266258,-0.20471285,-0.28062275,-0.23351702,0.8652463,0.20915598,0.14094979,0.22033179,0.576465,-0.7728034
-0.5304562,0.058999714,0.27943385,-0.22471875,-0.28217137,-0.23758195,0.8502976,0.20960069,0.1484263,0.21730569,0.57759905,-0.77076197
-0.52808845,0.053963624,0.3003248,-0.24064256,-0.28748566,-0.24726054,0.8502976,0.20960069,0.1484263,0.21390855,0.57863903,-0.7688663
-0.529536,0.055997446,0.32508242,-0.25754508,-0.2989385,-0.26815116,0.84945524,0.21274114,0.16979736,0.21001312,0.57949877,-0.7674339
-0.5403378,0.06482451,0.32785988,-0.27141687,-0.31943864,-0.29743728,0.84945524,0.21274114,0.16979736,0.20566514,0.5799829,-0.76673627
-0.53435576,0.08905034,0.32294893,-0.284988,-0.33891034,-0.3214992,0.8755176,0.21202312,0.15884101,0.20086461,0.5801126,-0.76621985
-0.50919163,0.09916038,0.305861,-0.2910842,-0.35728437,-0.33394754,0.8755176,0.21202312,0.15884101,0.19587052,0.5798714,-0.7664306
-0.5121331,0.110380255,0.2723769,-0.29378572,-0.37504375,-0.3459946,0.85679364,0.21785536,0.17476195,0.19072032,0.5792831,-0.76686144
-0.5151582,0.121448636,0.24463642,-0.29078692,-0.38453668,-0.35214582,0.85679364,0.21785536,0.17476195,0.1856121,0.5784931,-0.76753306
-0.5248693,0.12777704,0.22998512,-0.28922582,-0.391839,-0.35650533,0.8582567,0.2353511,0.1626693,0.18048659,0.5775659,-0.76903105
-0.5291129,0.13421962,0.22380042,-0.28976154,-0.39966628,-0.3636779,0.8582567,0.2353511,0.1626693,0.17533022,0.57646495,-0.7699721
-0.51504314,0.14021376,0.21840966,-0.29061306,-0.4038565,-0.36682087,0.857986,0.24602328,0.18007332,0.17011906,0.57528543,-0.7713065
-0.5176692,0.13570687,0.22690213,-0.28958246,-0.4067401,-0.3694562,0.857986,0.24602328,0.18007332,0.16493693,0.5740317,-0.7723658
-0.5241653,0.13459283,0.23441863,-0.28906894,-0.4148687,-0.3707215,0.8443258,0.24830858,0.16211605,0.15974045,0.5726092,-0.77337515
-0.5138973,0.12526001,0.22998667,-0.29019046,-0.42103666,-0.36969474,0.8443258,0.24830858,0.16211605,0.15454601,0.57104135,-0.77443945
-0.50739163,0.11867467,0.2104553,-0.29342702,-0.42228752,-0.37648258,0.8549849,0.25093967,0.17149681,0.14923485,0.5694527,-0.7752874
-0.4949524,0.11241564,0.20524538,-0.29779518,-0.41659787,-0.37438324,0.8549849,0.25093967,0.17149681,0.14386725,0.56797147,-0.7764182
-0.51652074,0.096638754,0.2155459,-0.3037827,-0.4139136,-0.37549534,0.8577448,0.26238865,0.1251725,0.13835628,0.5665517,-0.77779937
-0.52600753,0.101505995,0.2335602,-0.31805316,-0.4123544,-0.3879341,0.8577448,0.26238865,0.1251725,0.13250382,0.56515515,-0.77918935
-0.5121418,0.10508025,0.23912036,-0.33970964,-0.3989565,-0.40401232,0.84482086,0.26639497,0.17129862,0.12610559,0.56404674,-0.780633
-0.53791285,0.12997979,0.27762723,-0.36808452,-0.37501436,-0.44527286,0.84482086,0.26639497,0.17129862,0.11891519,0.56343913,-0.7832103
-0.563871,0.16387692,0.4292339,-0.38244164,-0.38548175,-0.4179065,0.84308875,0.28892365,0.15488553,0.11156077,0.56260014,-0.7857206
-0.55869645,0.085491195,0.43628502,-0.3727386,-0.43300444,-0.364847,0.84308875,0.28892365,0.15488553,0.10471835,0.560729,-0.78654575
-0.5282958,0.08946259,0.33778584,-0.36104062,-0.4585404,-0.35460058,0.8492069,0.28952903,0.1809305,0.09816976,0.5583174,-0.7868209
-0.49309206,0.08208815,0.2865435,-0.35555783,-0.4537441,-0.3478296,0.8492069,0.28952903,0.1809305,0.09179075,0.55600107,-0.7872268
-0.4723662,0.04391843,0.27232587,-0.35615036,-0.44273868,-0.3338026,0.8329234,0.30437997,0.15468568,0.085463636,0.5539329,-0.7876258
-0.48725918,0.0126743,0.26695454,-0.35755014,-0.43233407,-0.33000073,0.8329234,0.30437997,0.15468568,0.07914516,0.55207807,-0.7876234
-0.50492376,0.004378408,0.26744628,-0.36229008,-0.4206688,-0.32412085,0.8368925,0.29887295,0.1419869,0.07274927,0.5504794,-0.78701794
-0.49410713,-0.0054091513,0.2784078,-0.3720654,-0.40901688,-0.32760108,0.8368925,0.29887295,0.1419869,0.0661431,0.5491221,-0.78695977
-0.4832865,-0.016004544,0.2808193,-0.3838896,-0.39732724,-0.32947177,0.83973897,0.31506687,0.17686272,0.059266757,0.5480195,-0.7871094
-0.4735867,-0.030740775,0.2921368,-0.3957769,-0.38844594,-0.3312036,0.83973897,0.31506687,0.17686272,0.052147,0.54709506,-0.787138
-0.47118533,-0.04571777,0.303581,-0.40455973,-0.38350224,-0.33509147,0.83615756,0.32033783,0.18105102,0.044812284,0.546276,-0.7871784
-0.49085808,-0.055019878,0.32850504,-0.413578,-0.37836123,-0.3390733,0.83615756,0.32033783,0.18105102,0.037281506,0.5455528,-0.78737676
-0.5079402,-0.05960407,0.35743153,-0.4266397,-0.3769424,-0.34107965,0.82643855,0.34077513,0.17679006,0.029456243,0.54486394,-0.78801537
-0.5032279,-0.07100083,0.35625792,-0.44013542,-0.3802975,-0.3403287,0.82643855,0.34077513,0.17679006,0.021373674,0.5440945,-0.78821576
-0.50468236,-0.079824366,0.33602166,-0.45065713,-0.38033316,-0.33821437,0.83364165,0.35122594,0.19045496,0.0130733475,0.5433337,-0.78845966
-0.506147,-0.08559087,0.33177817,-0.45578396,-0.37605557,-0.33677107,0.83364165,0.35122594,0.19045496,0.0046856254,0.5426584,-0.78857934
-0.51445776,-0.09385292,0.35663283,-0.45581758,-0.37592375,-0.3333593,0.8349875,0.3582846,0.1694687,-0.0036948398,0.541998,-0.7884964
-0.5277473,-0.10018122,0.3717965,-0.4540348,-0.3788621,-0.3321816,0.8349875,0.3582846,0.1694687,-0.012015514,0.5412737,-0.7884891
-0.50523794,-0.1042103,0.40083385,-0.4508132,-0.3788812,-0.328924,0.8406509,0.3617943,0.20837587,-0.020261422,0.5405623,-0.7882216
-0.49086002,-0.11737549,0.40643895,-0.44346774,-0.3779713,-0.32090303,0.8406509,0.3617943,0.20837587,-0.028302118,0.53989,-0.7879627
-0.49043775,-0.12977602,0.42719007,-0.43421623,-0.37551603,-0.31469417,0.82749426,0.37427965,0.19080341,-0.036132142,0.5392959,-0.7876431
-0.50826573,-0.13673183,0.44819224,-0.42562705,-0.3786748,-0.3119343,0.82749426,0.37427965,0.19080341,-0.04375264,0.5386424,-0.78717613
-0.51370806,-0.13949215,0.44233358,-0.418306,-0.38554224,-0.3067977,0.8445922,0.37994733,0.22207218,-0.051195547,0.5378715,-0.7865101
-0.52237976,-0.13794005,0.4088825,-0.41432235,-0.39323044,-0.3040525,0.8445922,0.37994733,0.22207218,-0.058518752,0.53695107,-0.78577983
-0.53422874,-0.1395523,0.37365043,-0.41371694,-0.39657402,-0.30222386,0.83820343,0.39001417,0.21342963,-0.065824,0.53597844,-0.78501403
-0.53973687,-0.14847796,0.3553965,-0.4164123,-0.39993244,-0.29308316,0.83820343,0.39001417,0.21342963,-0.07312235,0.5349731,-0.7839941
-0.5398928,-0.15496697,0.31925917,-0.42925853,-0.39990658,-0.28796473,0.83819366,0.39790052,0.22222745,-0.08067021,0.53400165,-0.78288054
-0.53984916,-0.17531401,0.3149507,-0.4479059,-0.39484337,-0.27783358,0.83819366,0.39790052,0.22222745,-0.088551655,0.5331811,-0.78155756
-0.54279506,-0.20336425,0.30700922,-0.46354046,-0.39664862,-0.27089956,0.83531797,0.40536666,0.21374673,-0.09672874,0.53236926,-0.78003013
-0.5482607,-0.22419673,0.30632794,-0.4773734,-0.3947889,-0.27304667,0.83531797,0.40536666,0.21374673,-0.105195284,0.5315938,-0.7785889
-0.5233337,-0.23798612,0.30627632,-0.49033704,-0.39059216,-0.2748021,0.8380487,0.41112345,0.23972726,-0.11395453,0.53091335,-0.7771838
-0.51845855,-0.25667167,0.3300053,-0.4993979,-0.38865033,-0.27891925,0.8380487,0.41112345,0.23972726,-0.12291396,0.5302596,-0.77588904
-0.51689696,-0.26498297,0.3484447,-0.50585496,-0.38754734,-0.29270354,0.8379036,0.4243464,0.25722706,-0.13208339,0.52957606,-0.7749982
-0.50282145,-0.27082396,0.34859383,-0.50561106,-0.3933703,-0.30423182,0.8379036,0.4243464,0.25722706,-0.14127868,0.52871764,-0.7741543
-0.4888932,-0.26469314,0.3030126,-0.49837515,-0.40040594,-0.31409383,0.8266547,0.42995727,0.26940888,-0.15036222,0.52767646,-0.77341163
-0.48647308,-0.2613168,0.30419898,-0.4836685,-0.4021306,-0.32023776,0.8266547,0.42995727,0.26940888,-0.15915313,0.52656794,-0.77278316
-0.47955027,-0.26840633,0.29937148,-0.4619211,-0.40097815,-0.31768683,0.8263842,0.44063044,0.2868129,-0.16748917,0.5255078,-0.7721652
-0.4894196,-0.28078663,0.29686737,-0.4367786,-0.40110922,-0.3186037,0.8263842,0.44063044,0.2868129,-0.17529514,0.5244403,-0.77148473
-0.48669857,-0.27292067,0.27497458,-0.4157774,-0.39909786,-0.3198336,0.8281176,0.447452,0.2573179,-0.18268052,0.52341354,-0.77070045
-0.47714245,-0.2828226,0.2664398,-0.39799273,-0.3973687,-0.31511104,0.8281176,0.447452,0.2573179,-0.18966892,0.5224522,-0.7699641
-0.497063,-0.29589176,0.23753905,-0.3842993,-0.39763808,-0.3182215,0.82413876,0.4608454,0.2788145,-0.19639304,0.5214759,-0.76941323
-0.49259165,-0.30312797,0.20617723,-0.3712811,-0.3943299,-0.3177196,0.82413876,0.4608454,0.2788145,-0.20284188,0.5205672,-0.7687392
-0.5041807,-0.30766252,0.17778897,-0.35795367,-0.39055598,-0.32595682,0.8275082,0.47146666,0.29647613,-0.2090666,0.5196866,-0.76839125
-0.5057365,-0.30792388,0.1523751,-0.3479832,-0.3859997,-0.3291259,0.8275082,0.47146666,0.29647613,-0.21509954,0.51887083,-0.76801014
-0.5077412,-0.31201065,0.1356659,-0.34276503,-0.37982398,-0.33554593,0.8277607,0.4765662,0.2966677,-0.22107393,0.518137,-0.76779807
-0.49664378,-0.31407303,0.13204873,-0.33620998,-0.37356642,-0.33330327,0.8277607,0.4765662,0.2966677,-0.22690943,0.5175365,-0.7676213
-0.515657,-0.32409155,0.1208967,-0.32969472,-0.36935887,-0.3327899,0.8234805,0.47175464,0.30472726,-0.23262379,0.51702523,-0.76731133
-0.5171695,-0.32212138,0.122356296,-0.3248164,-0.36757898,-0.33434147,0.8234805,0.47175464,0.30472726,-0.23824063,0.5165341,-0.7672126
-0.5211772,-0.3201434,0.10260308,-0.32476768,-0.36393562,-0.33562842,0.8153485,0.48288625,0.33438087,-0.24387842,0.5161101,-0.7673316
-0.53142035,-0.32554218,0.075504184,-0.32567465,-0.3589746,-0.33032814,0.8153485,0.48288625,0.33438087,-0.2495172,0.51581395,-0.7672509
-0.5236275,-0.3207144,0.08597231,-0.32550398,-0.35102478,-0.3249186,0.8147085,0.47802278,0.34269804,-0.25515684,0.515715,-0.7670399
-0.5117761,-0.34683287,0.11590111,-0.32114497,-0.35107878,-0.30656937,0.8147085,0.47802278,0.34269804,-0.26062113,0.5157518,-0.7666056
-0.51774025,-0.3656909,0.13948905,-0.31725168,-0.35293245,-0.30814674,0.81871796,0.4935075,0.3520425,-0.26601312,0.515751,-0.76631105
-0.522461,-0.38055918,0.18177235,-0.30924273,-0.35682866,-0.3066369,0.81871796,0.4935075,0.3520425,-0.27121425,0.5156842,-0.7658061
-0.5056842,-0.38969028,0.26374257,-0.2984073,-0.36431953,-0.30648625,0.8295039,0.49868736,0.3615191,-0.27617413,0.51548773,-0.7652378
-0.51624423,-0.40807956,0.30247927,-0.28198972,-0.37696198,-0.31537664,0.8295039,0.49868736,0.3615191,-0.2807869,0.51498044,-0.76463366
-0.50574875,-0.4003482,0.30746293,-0.26085484,-0.3940816,-0.31722218,0.82726693,0.51101696,0.3447212,-0.28492308,0.5141491,-0.7638713
-0.4941228,-0.38622472,0.25667727,-0.2345641,-0.40246704,-0.31748712,0.82726693,0.51101696,0.3447212,-0.28848302,0.51315725,-0.7629641
-0.50944865,-0.3646629,0.19259703,-0.2070465,-0.40976858,-0.3163432,0.83295,0.498754,0.36603272,-0.29144898,0.51204836,-0.76183033
-0.5235064,-0.34296536,0.121187806,-0.18074736,-0.41291383,-0.3201836,0.83295,0.498754,0.36603272,-0.2938704,0.510847,-0.76082444
-0.5090604,-0.3167018,0.06640184,-0.15458642,-0.40140224,-0.31583172,0.823627,0.5110689,0.34446353,-0.29576945,0.5099031,-0.75993
-0.51828957,-0.3102728,0.0249753,-0.12286239,-0.38813838,-0.30662796,0.823627,0.5110689,0.34446353,-0.29700765,0.5092752,-0.7590033
-0.52944934,-0.29873508,0.014728427,-0.09134993,-0.36689606,-0.30077642,0.8120085,0.5011431,0.3475585,-0.29763484,0.5090947,-0.7581694
-0.54113746,-0.28879017,0.028255105,-0.057351068,-0.34285325,-0.2922959,0.8120085,0.5011431,0.3475585,-0.2975908,0.50942075,-0.7575903
-0.5580272,-0.27714598,0.07374573,-0.025610788,-0.31790003,-0.2827931,0.8224653,0.51177806,0.3699932,-0.2969272,0.5102953,-0.7573793
-0.5576331,-0.27065462,0.11472523,0.006315857,-0.30131093,-0.2696448,0.8224653,0.51177806,0.3699932,-0.29559305,0.5115751,-0.7569443
-0.5694304,-0.26996204,0.14402962,0.032240763,-0.2897986,-0.2600455,0.8261833,0.50117147,0.3571028,-0.2937155,0.51315534,-0.7563747
-0.5483037,-0.27594993,0.1758089,0.05353403,-0.28344584,-0.25039747,0.8261833,0.50117147,0.3571028,-0.29137257,0.51492363,-0.7558178
-0.5239514,-0.28757653,0.16717136,0.07682726,-0.28741738,-0.23799437,0.833657,0.50094914,0.3533637,-0.28848007,0.5167303,-0.75499725
-0.51096535,-0.3083335,0.16270864,0.09868465,-0.29686186,-0.22935367,0.833657,0.50094914,0.3533637,-0.28506586,0.5184204,-0.75385964
-0.5125356,-0.32477438,0.13499391,0.12196405,-0.3133121,-0.2222534,0.8228222,0.48266387,0.3306417,-0.2810839,0.5198675,-0.7521436
-0.511479,-0.3354312,0.11135578,0.13516769,-0.32272094,-0.21859354,0.8228222,0.48266387,0.3306417,-0.27678233,0.521154,-0.7504494
-0.4985434,-0.3479589,0.11107862,0.139863,-0.32753962,-0.21015221,0.8410331,0.47451797,0.32313538,-0.272328,0.5224204,-0.7484393
-0.49444786,-0.37662163,0.100129485,0.14102432,-0.34017277,-0.20121309,0.8410331,0.47451797,0.32313538,-0.26777172,0.5235023,-0.7461798
-0.50012237,-0.39415556,0.088572145,0.13647708,-0.34829584,-0.20329717,0.8393582,0.47291347,0.35707974,-0.26329225,0.52441704,-0.7441026
-0.5123688,-0.402601,0.0905031,0.12409136,-0.35425287,-0.21171653,0.8393582,0.47291347,0.35707974,-0.25908652,0.5251316,-0.7418481
-0.5079839,-0.40826064,0.10560155,0.10424046,-0.3615032,-0.2192031,0.8485069,0.4742956,0.31939632,-0.25530294,0.52565306,-0.7396704
-0.5078908,-0.42015305,0.11537039,0.07600318,-0.37649646,-0.22976577,0.8485069,0.4742956,0.31939632,-0.2521085,0.5257914,-0.7374755
-0.53043485,-0.42123717,0.114479184,0.0529178,-0.38717374,-0.24389432,0.8330643,0.45665392,0.31769192,-0.24942517,0.5256233,-0.7352694
-0.54761887,-0.41602957,0.12356067,0.035458617,-0.39671713,-0.25611687,0.8330643,0.45665392,0.31769192,-0.24713221,0.5251672,-0.73332906
-0.5636345,-0.40194455,0.12998211,0.024296403,-0.40401417,-0.26179197,0.84839106,0.46385947,0.31050277,-0.2450782,0.52453756,-0.7315384
-0.57209253,-0.3861656,0.13171506,0.018835835,-0.40865505,-0.2630114,0.84839106,0.46385947,0.31050277,-0.24313,0.5237944,-0.729591
-0.58360773,-0.36628494,0.12866044,0.019533671,-0.41077214,-0.25679743,0.8352915,0.45221066,0.34328765,-0.24113727,0.5230655,-0.7275928
-0.5924342,-0.35129914,0.12570119,0.026446685,-0.40999758,-0.24448986,0.8352915,0.45221066,0.34328765,-0.23894888,0.5224248,-0.7252836
-0.5939363,-0.33686802,0.1322515,0.034339502,-0.40884086,-0.23031035,0.8302082,0.44834635,0.2916156,-0.2365394,0.5219161,-0.722543
-0.5935183,-0.32919836,0.12330055,0.044112027,-0.41151232,-0.2228983,0.8302082,0.44834635,0.2916156,-0.23388794,0.52139163,-0.7198107
-0.5969012,-0.31430626,0.11987889,0.055356026,-0.41372657,-0.21546969,0.84718895,0.44357792,0.31398916,-0.23096752,0.52088535,-0.7170185
-0.6199012,-0.30122826,0.11040044,0.07123802,-0.41160923,-0.20239016,0.84718895,0.44357792,0.31398916,-0.22766519,0.5204891,-0.71389914
-0.603457,-0.2997468,0.08964872,0.09360242,-0.3999362,-0.18109222,0.85122645,0.43540257,0.2969402,-0.22383678,0.52047217,-0.7104564
-0.53763926,-0.30087724,0.07451272,0.1214623,-0.38158378,-0.16054012,0.85122645,0.43540257,0.2969402,-0.21938494,0.5209242,-0.7068739
-0.51193196,-0.29646227,0.071939945,0.14884599,-0.36541498,-0.13868137,0.85903907,0.42183876,0.27144688,-0.21430656,0.5218375,-0.70284104
-0.5313707,-0.3094275,0.0757761,0.17397036,-0.34252712,-0.12611425,0.85903907,0.42183876,0.27144688,-0.20870292,0.5232455,-0.699008
-0.52701443,-0.30745256,0.114763856,0.19126613,-0.32222432,-0.12591426,0.85105205,0.4197484,0.28359902,-0.20278516,0.5250472,-0.6956955
-0.5128751,-0.31060672,0.14257193,0.2011509,-0.30818692,-0.13321358,0.85105205,0.4197484,0.28359902,-0.19671893,0.5270344,-0.69233
-0.5061547,-0.30965522,0.1734103,0.2062858,-0.30598044,-0.14457463,0.8473033,0.40147686,0.2656483,-0.19059548,0.528986,-0.6890061
-0.48476505,-0.31222865,0.21863163,0.20961419,-0.32217637,-0.15334877,0.8473033,0.40147686,0.2656483,-0.18439606,0.53052825,-0.6858504
-0.48414794,-0.31778288,0.18363988,0.21536532,-0.3697395,-0.15653951,0.85906684,0.39817968,0.2450518,-0.17797703,0.5311073,-0.68235993
-0.5018202,-0.33057877,0.12020576,0.21941137,-0.39588484,-0.16477928,0.85906684,0.39817968,0.2450518,-0.17144838,0.5310775,-0.6786802
-0.5138787,-0.3181974,0.10052109,0.21845809,-0.40683928,-0.1838145,0.846751,0.3781724,0.2520181,-0.16500667,0.5307083,-0.6751698
-0.509476,-0.30428568,0.10904431,0.21315286,-0.4190411,-0.20449269,0.846751,0.3781724,0.2520181,-0.15874532,0.52993816,-0.67206717
-0.5052815,-0.28932074,0.12914884,0.2049301,-0.43544918,-0.2178168,0.86228013,0.37737307,0.23177671,-0.15268949,0.52876246,-0.6692592
-0.5010587,-0.27796647,0.1263783,0.19801128,-0.45087957,-0.22259861,0.86228013,0.37737307,0.23177671,-0.14676917,0.52721465,-0.66625357
-0.500304,-0.265033,0.1198827,0.1929296,-0.46400258,-0.2228795,0.8501483,0.3651346,0.24328637,-0.14093956,0.525401,-0.66326225
-0.49906766,-0.25888917,0.115985155,0.19374639,-0.47478202,-0.21920341,0.8501483,0.3651346,0.24328637,-0.13505849,0.52335334,-0.6600193
-0.4924516,-0.25032562,0.12446535,0.19563822,-0.47958964,-0.21794322,0.8508651,0.3594434,0.22181952,-0.12913622,0.5212133,-0.6568309
-0.49017692,-0.23707685,0.13680875,0.19884694,-0.48188472,-0.21468307,0.8508651,0.3594434,0.22181952,-0.123132914,0.5190056,-0.65348434
-0.49038133,-0.2227878,0.15795541,0.20254692,-0.4871749,-0.21081877,0.8429549,0.3467974,0.22082198,-0.1170394,0.5167062,-0.65005803
-0.4772189,-0.2088851,0.16424882,0.20596796,-0.49172765,-0.21027863,0.8429549,0.3467974,0.22082198,-0.11087045,0.5142778,-0.64659655
-0.47096616,-0.19471703,0.18198025,0.20913726,-0.5027168,-0.20560606,0.8376205,0.33783257,0.16895843,-0.10461064,0.5116414,-0.6428497
-0.47000188,-0.18315525,0.19009471,0.2144705,-0.51726437,-0.2046481,0.8376205,0.33783257,0.16895843,-0.09822065,0.5086719,-0.6391455
-0.46365288,-0.1770279,0.1883601,0.22581664,-0.5280398,-0.20301722,0.8295164,0.3253051,0.17221689,-0.09158927,0.5054817,-0.6354029
-0.45811778,-0.16333105,0.19258714,0.23969772,-0.5392127,-0.1999408,0.8295164,0.3253051,0.17221689,-0.08465031,0.5020309,-0.6315266
-0.45595613,-0.15045871,0.19458807,0.25530413,-0.5463581,-0.19454117,0.82243884,0.31740403,0.1586461,-0.077374876,0.49844593,-0.627712
-0.45239103,-0.14318678,0.19869864,0.26998222,-0.5498458,-0.18886317,0.82243884,0.31740403,0.1586461,-0.0697785,0.4947621,-0.6236348
-0.45045933,-0.13424788,0.20690024,0.28230557,-0.5490717,-0.18727179,0.8156316,0.2988308,0.12767297,-0.06194277,0.4910844,-0.61937535
-0.4431446,-0.12370369,0.2207607,0.28985795,-0.54110384,-0.19077368,0.8156316,0.2988308,0.12767297,-0.05399105,0.48751011,-0.61549103
-0.43661046,-0.11168265,0.24329484,0.2893508,-0.5307306,-0.1956074,0.8267648,0.28278384,0.106595874,-0.046104074,0.48411995,-0.6116649
-0.4352808,-0.10380873,0.28000307,0.28603715,-0.52555263,-0.20054272,0.8267648,0.28278384,0.106595874,-0.03832598,0.4807749,-0.60816157
-0.43482938,-0.098808944,0.3300047,0.2813616,-0.52358246,-0.20879298,0.8341228,0.27212536,0.093964875,-0.030701667,0.47743556,-0.6049577
-0.42426717,-0.10019466,0.3693484,0.2762973,-0.5259102,-0.21979736,0.8341228,0.27212536,0.093964875,-0.023238033,0.4739708,-0.6019367
-0.3564718,-0.07303946,0.4193344,0.26867673,-0.5091983,-0.23036449,0.8202199,0.26142377,0.06701654,-0.016009808,0.47082087,-0.59929657
-0.21061616,-0.007607896,0.4346732,0.23899096,-0.48791206,-0.21516746,0.8202199,0.26142377,0.06701654,-0.009361662,0.46812183,-0.5964267
-0.4072327,-0.06180811,0.41697335,0.19217743,-0.42427227,-0.21856934,0.82271624,0.24630834,0.07520819,-0.003762193,0.46674845,-0.59384954
-0.551031,-0.08281426,0.56901205,0.15876381,-0.36979625,-0.28474563,0.82271624,0.24630834,0.07520819,0.0008278191,0.46633074,-0.59291124
-0.4364397,-0.022518858,0.7431141,0.1091115,-0.34124586,-0.3685288,0.80802965,0.24396624,0.07408017,0.004017666,0.46632874,-0.59390235
-0.44608614,0.024228133,0.7738303,0.04539173,-0.316427,-0.42222112,0.80802965,0.24396624,0.07408017,0.005647294,0.46671143,-0.59598565
-0.482463,0.045508206,0.80572903,-0.0043208785,-0.30093658,-0.45351774,0.83136284,0.23749045,0.03714335,0.0061041266,0.4673638,-0.59849215
-0.50401807,0.04446353,0.8145765,-0.034387995,-0.32608238,-0.46443868,0.83136284,0.23749045,0.03714335,0.005908683,0.46744922,-0.6014081
-0.47566134,0.022258574,0.7526983,-0.039644275,-0.3699007,-0.46024632,0.8233564,0.25117183,0.066891015,0.0056537315,0.46663693,-0.6043668
-0.4302955,-0.0056327432,0.6493443,-0.035294604,-0.4086965,-0.44452417,0.8233564,0.25117183,0.066891015,0.005583696,0.46502668,-0.60657513
-0.40042958,-0.016610574,0.53031695,-0.045080937,-0.43680975,-0.43777388,0.8195896,0.24867396,0.06653595,0.0053629577,0.46285242,-0.60847306
-0.40754604,-0.02773498,0.43320584,-0.06790303,-0.4546324,-0.43465096,0.8195896,0.24867396,0.06653595,0.0046948344,0.46029606,-0.61030865
-0.41393468,-0.048,0.36940265,-0.08815728,-0.4617926,-0.4242176,0.8066267,0.26104075,0.044709027,0.0036587045,0.4576261,-0.6120751
-0.39768845,-0.062235877,0.33856678,-0.100712,-0.46294,-0.41287595,0.8066267,0.26104075,0.044709027,0.0024097115,0.45494217,-0.6134232
-0.39424637,-0.060916007,0.2981634,-0.10211645,-0.45933306,-0.40696806,0.809957,0.25067028,0.04032749,0.0011592135,0.4523572,-0.61434686
-0.38812223,-0.057067238,0.27171147,-0.095552266,-0.452499,-0.40404576,0.809957,0.25067028,0.04032749,5.0738454e-05,0.44991076,-0.6155416
-0.38071,-0.056379586,0.26302326,-0.081635304,-0.44226187,-0.40661073,0.80005383,0.26333976,0.03152311,-0.00078133494,0.44768643,-0.6169938
-0.37702325,-0.05167903,0.28887284,-0.06514436,-0.4390737,-0.41091007,0.80005383,0.26333976,0.03152311,-0.0012901127,0.44550365,-0.61837125
-0.38907534,-0.049360394,0.3012712,-0.049403343,-0.43632793,-0.40801072,0.79219246,0.2637982,0.04377103,-0.0014576614,0.44339818,-0.6197256
-0.39616662,-0.054428764,0.31326103,-0.0334657,-0.4294778,-0.39575633,0.79219246,0.2637982,0.04377103,-0.0012539774,0.4414538,-0.62082815
-0.40183628,-0.062752426,0.34316468,-0.018927462,-0.42544454,-0.37945166,0.7817161,0.26893693,0.038933575,-0.00068519264,0.439648,-0.6217369
-0.41989315,-0.06575086,0.37129843,-0.010142412,-0.42955464,-0.35897285,0.7817161,0.26893693,0.038933575,0.00014339387,0.43779227,-0.62209284
-0.4208925,-0.07674891,0.36476922,-0.0038813017,-0.43832976,-0.34418377,0.78511477,0.25589812,0.030201852,0.0011680722,0.43579835,-0.62182343
-0.41964188,-0.0944045,0.35078204,0.0046451166,-0.42708132,-0.325939,0.78511477,0.25589812,0.030201852,0.0024248287,0.4340739,-0.62152255
-0.41996875,-0.10172577,0.3536446,0.0068153776,-0.42543098,-0.31368494,0.77514327,0.2712359,0.025749326,0.0037723035,0.4324283,-0.62137043
-0.4150476,-0.120156616,0.32641912,0.015669517,-0.40067485,-0.30064934,0.77514327,0.2712359,0.025749326,0.0053320825,0.43131766,-0.62065816
-0.4417934,-0.114440635,0.3730724,0.016579494,-0.38960743,-0.29310098,0.77445436,0.25326806,0.020821095,0.006934732,0.4304673,-0.61954165
-0.41980743,-0.119348094,0.3654673,0.010494664,-0.38083407,-0.2926542,0.77445436,0.25326806,0.020821095,0.008402154,0.4297904,-0.618742
-0.41431645,-0.1246323,0.37653482,0.0035631657,-0.36190644,-0.29030228,0.77880144,0.2554113,0.008409679,0.009724714,0.42953014,-0.61800504
-0.41629532,-0.121217385,0.39801157,-0.015375908,-0.3640024,-0.2928421,0.77880144,0.2554113,0.008409679,0.010643087,0.42920548,-0.6172694
-0.40179154,-0.13450374,0.36673057,-0.029575406,-0.3452445,-0.29566658,0.7928493,0.25288895,0.017858148,0.011247039,0.42928302,-0.61666656
-0.42063397,-0.13769811,0.4017465,-0.04297697,-0.32784668,-0.29887196,0.7928493,0.25288895,0.017858148,0.011548251,0.42970672,-0.6161758
-0.42049688,-0.13792455,0.42663097,-0.062381767,-0.3283707,-0.3048038,0.7860143,0.2579748,0.013278425,0.011426508,0.43012083,-0.61594236
-0.42513952,-0.14355451,0.41885197,-0.07661916,-0.31401414,-0.30881968,0.7860143,0.2579748,0.013278425,0.010984428,0.43081468,-0.6157005
-0.4293453,-0.14438166,0.43114352,-0.09045789,-0.30389225,-0.30988687,0.7853755,0.2531113,0.021595597,0.010246262,0.43173257,-0.61543393
-0.4239933,-0.1391679,0.4504671,-0.10260271,-0.2945143,-0.31207156,0.7853755,0.2531113,0.021595597,0.009240478,0.43283063,-0.6153265
-0.43932253,-0.13120557,0.48022437,-0.114491895,-0.28936774,-0.30793115,0.78153193,0.26116812,0.03439015,0.007999845,0.4340611,-0.61531794
-0.4458163,-0.12348314,0.4822377,-0.12601918,-0.28966877,-0.30599168,0.78153193,0.26116812,0.03439015,0.006526746,0.43527526,-0.61510813
-0.44895113,-0.11761969,0.4778651,-0.13413982,-0.28769556,-0.30180636,0.801157,0.2574125,0.0015458465,0.004899949,0.43655342,-0.6146754
-0.45671326,-0.10833092,0.48017251,-0.13990253,-0.29069468,-0.2961064,0.801157,0.2574125,0.0015458465,0.0031755418,0.43776968,-0.61426675
-0.46236238,-0.10760786,0.4870838,-0.14056769,-0.2939883,-0.2875437,0.781281,0.2560686,0.034198582,0.0014720485,0.43895108,-0.6136426
-0.46037537,-0.11056872,0.48940563,-0.13534242,-0.29641795,-0.28271094,0.781281,0.2560686,0.034198582,-0.00010367483,0.44008043,-0.61294603
-0.45133206,-0.11266877,0.4805131,-0.12642515,-0.29788172,-0.27487978,0.77808595,0.2611025,0.02987814,-0.0014633685,0.44121355,-0.6121652
-0.44001368,-0.115546525,0.4615674,-0.1171585,-0.2999516,-0.26790658,0.77808595,0.2611025,0.02987814,-0.0026025772,0.4423069,-0.61115813
-0.43304536,-0.11436549,0.44113743,-0.10812248,-0.29966035,-0.26248083,0.78709924,0.26782024,0.0008984208,-0.0035333857,0.44343558,-0.61015093
-0.43501678,-0.11659582,0.41938055,-0.09997326,-0.29858273,-0.25642163,0.78709924,0.26782024,0.0008984208,-0.004271947,0.44458836,-0.60891783
-0.4377692,-0.11766188,0.4041742,-0.09200015,-0.29730377,-0.25042135,0.81339335,0.25862324,0.053638995,-0.004821807,0.44579738,-0.6075077
-0.4392603,-0.12159845,0.39275014,-0.08605518,-0.29908666,-0.24614719,0.81339335,0.25862324,0.053638995,-0.0052299276,0.44696692,-0.60606456
-0.44673267,-0.12166232,0.38135612,-0.082183376,-0.29904372,-0.24882933,0.8178673,0.26331627,0.041325092,-0.0055675358,0.44814587,-0.60477924
-0.44975334,-0.11994991,0.37736082,-0.07970463,-0.30090293,-0.25805664,0.8178673,0.26331627,0.041325092,-0.0058869794,0.4492481,-0.6035719
-0.4539872,-0.11880721,0.38017905,-0.07893023,-0.30402908,-0.26615438,0.8144978,0.25269502,0.023663342,-0.0062182695,0.45027682,-0.6022626
-0.4523774,-0.11444338,0.3841747,-0.079766996,-0.3106374,-0.277118,0.8144978,0.25269502,0.023663342,-0.0066049322,0.45112672,-0.601406
-0.4402615,-0.11317727,0.37987626,-0.07900791,-0.3149318,-0.28686345,0.8131423,0.25352272,0.053447366,-0.007010855,0.45187637,-0.60077405
-0.4341059,-0.11045167,0.3706355,-0.07855974,-0.31782824,-0.2955134,0.8131423,0.25352272,0.053447366,-0.007438682,0.45252872,-0.60026455
-0.44052684,-0.10504581,0.37510443,-0.07634597,-0.3208434,-0.30290094,0.7985226,0.24851331,0.047967613,-0.007847078,0.45311227,-0.5997647
-0.4427853,-0.098049775,0.37974882,-0.07450045,-0.32484055,-0.30480793,0.7985226,0.24851331,0.047967613,-0.0082215965,0.45359367,-0.5994172
-0.4434599,-0.09322138,0.38527107,-0.07529595,-0.3286147,-0.30456716,0.8204138,0.26130527,0.06276214,-0.008609943,0.45401326,-0.5993812
-0.44713658,-0.09861018,0.3798108,-0.07658481,-0.33421472,-0.2986962,0.8204138,0.26130527,0.06276214,-0.0089961365,0.45431396,-0.59887123
-0.45161834,-0.10269567,0.38436127,-0.078310445,-0.3370009,-0.29642805,0.80885386,0.25659853,0.07030481,-0.009406984,0.45457658,-0.59828377
-0.44802925,-0.10499911,0.39616406,-0.083089426,-0.34305763,-0.2970548,0.80885386,0.25659853,0.07030481,-0.009914629,0.45469627,-0.5977044
-0.43500987,-0.11248766,0.3944503,-0.08700232,-0.3477028,-0.29893884,0.8112358,0.2603972,0.023693085,-0.010507345,0.4547282,-0.59712815
-0.42720553,-0.11526996,0.37921047,-0.08886819,-0.35113576,-0.3010296,0.8112358,0.2603972,0.023693085,-0.0111442655,0.45466843,-0.5965967
-0.42603037,-0.118879616,0.37371385,-0.092733845,-0.35249984,-0.3029885,0.805465,0.26174998,0.07023865,-0.011868767,0.45459065,-0.5962416
-0.43223706,-0.11429003,0.36254752,-0.09491885,-0.3555228,-0.301371,0.805465,0.26174998,0.07023865,-0.012629151,0.45443872,-0.5956986
-0.435891,-0.11092368,0.3438468,-0.09552762,-0.3526889,-0.3004742,0.8159301,0.2644986,0.08387387,-0.013401613,0.45436445,-0.59528697
-0.43253568,-0.10822703,0.34115422,-0.09712945,-0.3478311,-0.29832453,0.8159301,0.2644986,0.08387387,-0.014202133,0.45438308,-0.5947143
-0.42682412,-0.106258556,0.3322947,-0.09944107,-0.34473056,-0.2966656,0.8125608,0.2538783,0.06621224,-0.015045971,0.4544842,-0.59384894
-0.42607096,-0.10982181,0.32825053,-0.100563355,-0.3416059,-0.29369652,0.8125608,0.2538783,0.06621224,-0.015904605,0.4546471,-0.59320855
-0.42793387,-0.114019156,0.329471,-0.10085803,-0.33754677,-0.29274112,0.81236696,0.25399584,0.07046664,-0.016768977,0.4549124,-0.5925164
-0.42798954,-0.11124666,0.33371258,-0.10334742,-0.3343001,-0.29892135,0.81236696,0.25399584,0.07046664,-0.01771219,0.4552151,-0.5920147
-0.4261894,-0.10792063,0.33964288,-0.10512796,-0.3327733,-0.30467162,0.80573547,0.2510768,0.05283469,-0.018716216,0.45554775,-0.59151435
-0.42936796,-0.09798816,0.34769654,-0.105948485,-0.33300805,-0.30963972,0.80573547,0.2510768,0.05283469,-0.019757047,0.45584837,-0.5912373
-0.43156826,-0.09276056,0.3553058,-0.1029928,-0.33295006,-0.31212187,0.8163862,0.26159424,0.07101327,-0.020747036,0.45615926,-0.5912272
-0.43262967,-0.0884705,0.3724048,-0.09676139,-0.33635464,-0.30948782,0.8163862,0.26159424,0.07101327,-0.02159366,0.45639077,-0.5909331
-0.43541816,-0.08508051,0.37220323,-0.09201042,-0.33906224,-0.30926108,0.8057258,0.25896317,0.061632454,-0.022337765,0.45658034,-0.5905731
-0.43013093,-0.08015215,0.37014985,-0.0889864,-0.34241363,-0.30739167,0.8057258,0.25896317,0.061632454,-0.0230093,0.4566915,-0.59020925
-0.41715822,-0.08620623,0.34309757,-0.08380892,-0.34862524,-0.3048076,0.8208685,0.2584009,0.049901545,-0.02355653,0.45669413,-0.589713
-0.41812003,-0.08940461,0.32934272,-0.078971125,-0.34813866,-0.3047923,0.8208685,0.2584009,0.049901545,-0.024004698,0.45669338,-0.58927023
-0.42033204,-0.09013131,0.3165673,-0.0724525,-0.346292,-0.30304742,0.8160082,0.25394392,0.07072592,-0.024310872,0.45675027,-0.5887433
-0.42027858,-0.095390216,0.30849588,-0.06496584,-0.34528092,-0.2989828,0.8160082,0.25394392,0.07072592,-0.02444768,0.45682672,-0.58819544
-0.42364737,-0.099046275,0.31008422,-0.06272854,-0.33899295,-0.29839045,0.81685054,0.25080252,0.04935491,-0.02453953,0.45704985,-0.58755076
-0.42011082,-0.10722591,0.31922865,-0.0621039,-0.33544526,-0.29324397,0.81685054,0.25080252,0.04935491,-0.024602756,0.4573491,-0.5869312
-0.4211619,-0.11877906,0.33136952,-0.06031832,-0.33317,-0.28897968,0.80540645,0.2565319,0.06579107,-0.024612918,0.45772368,-0.58639777
-0.42465198,-0.13210475,0.3404131,-0.05602019,-0.33406508,-0.2880351,0.80540645,0.2565319,0.06579107,-0.024530023,0.45806718,-0.58567846
-0.4327236,-0.13661703,0.34767032,-0.052818023,-0.33137706,-0.28999943,0.8164531,0.2589259,0.066663146,-0.024389818,0.45847577,-0.5851302
-0.43498898,-0.13708816,0.37040436,-0.055050462,-0.33104238,-0.2921491,0.8164531,0.2589259,0.066663146,-0.024305612,0.4588703,-0.58450806
-0.4398785,-0.13937138,0.38468158,-0.059278194,-0.3332516,-0.29615033,0.80892074,0.2539302,0.065954566,-0.024321705,0.45922014,-0.58388984
-0.44417876,-0.1385968,0.3942809,-0.0641074,-0.33970425,-0.3030025,0.80892074,0.2539302,0.065954566,-0.024460971,0.45940152,-0.5834489
-0.44044566,-0.13807721,0.3906834,-0.065736875,-0.34229285,-0.30870757,0.82022834,0.25353742,0.058218718,-0.024653465,0.4595255,-0.58308125
-0.43353948,-0.13046014,0.3805008,-0.06965742,-0.3425625,-0.31164512,0.82022834,0.25353742,0.058218718,-0.024939999,0.45962182,-0.5828035
-0.43363863,-0.12739077,0.37265003,-0.07146224,-0.34292832,-0.3075388,0.80782604,0.25197113,0.087132454,-0.025246307,0.4597365,-0.5824684
-0.43835047,-0.12974776,0.33927906,-0.07151714,-0.34524602,-0.3070493,0.80782604,0.25197113,0.087132454,-0.02555056,0.45979038,-0.58208466
-0.44154948,-0.12595649,0.33227468,-0.07155747,-0.34191173,-0.30923718,0.8021542,0.25634775,0.05702299,-0.025866643,0.45992157,-0.5817921
-0.44176778,-0.122872114,0.32222486,-0.07575047,-0.33909714,-0.31276903,0.8021542,0.25634775,0.05702299,-0.026287347,0.46008745,-0.5815536
-0.44431964,-0.120516986,0.3220582,-0.08133373,-0.3363712,-0.32070845,0.7904589,0.2569766,0.07326764,-0.026857615,0.46030086,-0.5815364
-0.44498673,-0.11226514,0.32906926,-0.087673634,-0.33402342,-0.32528454,0.7904589,0.2569766,0.07326764,-0.027580872,0.4605357,-0.5815766
-0.44072148,-0.11516635,0.33082306,-0.08909638,-0.3328554,-0.32661957,0.8126193,0.25909635,0.070659876,-0.028339267,0.460805,-0.5816835
-0.44223818,-0.114866436,0.34114635,-0.0879642,-0.33091283,-0.32595935,0.8126193,0.25909635,0.070659876,-0.029074311,0.4611028,-0.5817529
-0.4374392,-0.11901188,0.34464514,-0.081544176,-0.3347636,-0.32454216,0.8041191,0.25469133,0.09122497,-0.0296655,0.4613378,-0.5817207
-0.4438665,-0.11920594,0.3628086,-0.07752428,-0.33464858,-0.32696572,0.8041191,0.25469133,0.09122497,-0.030184433,0.46155432,-0.5817933
-0.4434695,-0.117546886,0.3757465,-0.073887765,-0.3409378,-0.32843643,0.8025991,0.26132876,0.052960157,-0.03062667,0.46164882,-0.5818912
-0.43706858,-0.12884447,0.37915158,-0.0686608,-0.34775048,-0.3272323,0.8025991,0.26132876,0.052960157,-0.030950218,0.4615906,-0.58190656
-0.43917593,-0.12996282,0.3597648,-0.062361598,-0.35375324,-0.33195487,0.8163862,0.26159424,0.07101327,-0.031155169,0.46140644,-0.58203614
-0.4397825,-0.1253493,0.37220776,-0.060116082,-0.35504803,-0.33686885,0.8163862,0.26159424,0.07101327,-0.031333104,0.46116596,-0.5822122
-0.43779802,-0.13201264,0.3800949,-0.056168832,-0.36031738,-0.3389198,0.82405376,0.26125333,0.06301975,-0.031430945,0.4608226,-0.58238745
-0.44137713,-0.13020466,0.3829348,-0.051748764,-0.36729378,-0.33880642,0.82405376,0.26125333,0.06301975,-0.03143117,0.46032023,-0.58254373
-0.44584036,-0.13032632,0.3864987,-0.04738173,-0.37447304,-0.33670676,0.81639445,0.25370786,0.062215507,-0.031323656,0.45968682,-0.58246374
-0.4546593,-0.12882544,0.37424326,-0.04317622,-0.3811552,-0.3368459,0.81639445,0.25370786,0.062215507,-0.031124786,0.45890072,-0.5825136
-0.45475933,-0.12919667,0.36317492,-0.03893243,-0.38635147,-0.33534625,0.81320083,0.25874177,0.057895064,-0.030825898,0.458025,-0.58258045
-0.45497522,-0.12549625,0.38077903,-0.0378445,-0.39106593,-0.33491313,0.81320083,0.25874177,0.057895064,-0.030499429,0.45703772,-0.5825441
-0.4558448,-0.12489033,0.37870145,-0.037452165,-0.3967111,-0.332938,0.81229997,0.25666416,0.07481849,-0.030150592,0.45595264,-0.5824704
-0.45100617,-0.12837137,0.38785803,-0.037279062,-0.40421957,-0.3312278,0.81229997,0.25666416,0.07481849,-0.029785872,0.45470157,-0.58229744
-0.45245484,-0.13433059,0.3883791,-0.035831846,-0.41021854,-0.33138576,0.7948059,0.25911987,0.060857892,-0.029385284,0.45333895,-0.5821439
-0.45441303,-0.13792896,0.3961078,-0.033580355,-0.42173162,-0.3373456,0.7948059,0.25911987,0.060857892,-0.028952315,0.45170292,-0.5820137
-0.45483387,-0.13248445,0.40816665,-0.03539227,-0.4319911,-0.34374204,0.8124938,0.2565456,0.07056242,-0.028571665,0.4498473,-0.58196855
-0.44847402,-0.14146554,0.40757215,-0.039742682,-0.4431758,-0.3518095,0.8124938,0.2565456,0.07056242,-0.028304026,0.44771898,-0.58203304
-0.46835232,-0.13344602,0.3822081,-0.044666007,-0.45077688,-0.36362725,0.79225934,0.26113087,0.039420843,-0.028176248,0.44541094,-0.5823306
-0.46575853,-0.13149707,0.36508524,-0.05211645,-0.45115876,-0.37149823,0.79225934,0.26113087,0.039420843,-0.028233573,0.44305632,-0.582757
-0.45152268,-0.12780401,0.37785757,-0.06065706,-0.45112288,-0.37377304,0.79635394,0.25817364,0.026817858,-0.028474748,0.44070992,-0.5831288
-0.4550863,-0.13059562,0.39957774,-0.06876015,-0.4555634,-0.37923256,0.79635394,0.25817364,0.026817858,-0.028901324,0.43823957,-0.5836886
-0.44541857,-0.12553158,0.45006156,-0.076351576,-0.4666881,-0.38874874,0.8004317,0.27099007,0.03181213,-0.029509634,0.4355245,-0.58464
-0.43109313,-0.13619624,0.46079266,-0.08587909,-0.48414063,-0.40038943,0.8004317,0.27099007,0.03181213,-0.030342177,0.43239135,-0.5854858
-0.42381948,-0.13513665,0.44742215,-0.09824632,-0.50046337,-0.4172272,0.7895287,0.25537312,0.013440251,-0.03147374,0.42887703,-0.5861609
-0.42252508,-0.13478325,0.4315226,-0.11337502,-0.51309276,-0.42987394,0.7895287,0.25537312,0.013440251,-0.03295289,0.42504546,-0.58744824
-0.41372037,-0.13946722,0.41960073,-0.12972686,-0.5242174,-0.43585,0.7681242,0.26855293,0.01662606,-0.034777656,0.4209772,-0.58894503
-0.42069414,-0.13311951,0.43290317,-0.15194035,-0.53755385,-0.432822,0.7681242,0.26855293,0.01662606,-0.037036687,0.4166206,-0.5901462
-0.4345091,-0.12635218,0.4189024,-0.18538144,-0.5483268,-0.41741446,0.77227736,0.27081472,0.008470833,-0.039920002,0.41210142,-0.5909077
-0.41239572,-0.1405691,0.42161655,-0.22609109,-0.5553268,-0.4006197,0.77227736,0.27081472,0.008470833,-0.043581128,0.40747333,-0.5913315
-0.39634022,-0.1611372,0.3883133,-0.2710514,-0.56246614,-0.38632613,0.763013,0.28834766,-0.008652508,-0.048115104,0.40276092,-0.5916141
-0.38837078,-0.18123838,0.36631703,-0.31688756,-0.5676599,-0.3775469,0.763013,0.28834766,-0.008652508,-0.053562194,0.3979532,-0.59144545
-0.38732362,-0.19401574,0.3287841,-0.36663696,-0.564182,-0.37325108,0.7711841,0.29820687,-0.01626116,-0.0600238,0.39325145,-0.5912199
-0.37465566,-0.27504122,0.33663976,-0.4021256,-0.5467392,-0.37896538,0.7711841,0.29820687,-0.01626116,-0.06725013,0.38887483,-0.5911046
-0.387733,-0.27283853,0.31254685,-0.4380531,-0.55129,-0.42454785,0.7498367,0.31660575,-0.008629382,-0.075350806,0.38424447,-0.5919974
-0.3642151,-0.24573642,0.34195983,-0.48480198,-0.54542387,-0.43308568,0.7498367,0.31660575,-0.008629382,-0.084441945,0.37967572,-0.5928426
-0.33983928,-0.22804365,0.34034657,-0.5406108,-0.53650635,-0.41636574,0.7540498,0.32408556,-0.012337148,-0.09463796,0.37536958,-0.59315455
-0.3408737,-0.24356359,0.34826338,-0.5910547,-0.52550143,-0.39389393,0.7540498,0.32408556,-0.012337148,-0.10581656,0.37136948,-0.5932288
-0.3420125,-0.27296317,0.3683473,-0.6310497,-0.52151436,-0.38567805,0.7272899,0.3440733,-0.043419242,-0.11779526,0.36750537,-0.5929533
-0.3458413,-0.31349546,0.37862706,-0.6557476,-0.5257613,-0.39641875,0.7272899,0.3440733,-0.043419242,-0.13030218,0.36348736,-0.592926
-0.34509957,-0.34398818,0.3662001,-0.67058384,-0.5260646,-0.42556316,0.7377858,0.3757,0.0010570288,-0.14318636,0.35932982,-0.59378517
-0.3266772,-0.35387415,0.38192308,-0.67912465,-0.5310746,-0.46716923,0.7377858,0.3757,0.0010570288,-0.1563378,0.35481533,-0.5948974
-0.31823885,-0.33867794,0.3420006,-0.685487,-0.5434627,-0.49462953,0.724756,0.39073512,-0.016419709,-0.16966128,0.34989423,-0.5960926
-0.32258385,-0.322641,0.28112364,-0.6954389,-0.53937817,-0.5079683,0.724756,0.39073512,-0.016419709,-0.18321213,0.34493753,-0.59770286
-0.33342585,-0.3120089,0.25508595,-0.703136,-0.5245137,-0.50840586,0.71068025,0.41691554,0.0005284548,-0.19692498,0.34026513,-0.5994035
-0.33785108,-0.31727758,0.25609183,-0.7153987,-0.5155322,-0.49608493,0.71068025,0.41691554,0.0005284548,-0.21085694,0.3358085,-0.60082114
-0.33514327,-0.33193985,0.2390132,-0.74118674,-0.5058655,-0.47796786,0.6876105,0.44995672,-0.017050624,-0.22527951,0.33166143,-0.60193765
-0.3289083,-0.35491753,0.21504283,-0.76798373,-0.4925251,-0.46494853,0.6876105,0.44995672,-0.017050624,-0.24023303,0.3278299,-0.6028422
-0.31361017,-0.38362405,0.21274984,-0.7923452,-0.47247666,-0.45610434,0.6977284,0.47393218,0.027138174,-0.2556882,0.3244511,-0.60389495
-0.2979501,-0.41315526,0.17446077,-0.80709267,-0.4597393,-0.45114386,0.6977284,0.47393218,0.027138174,-0.27144533,0.32131726,-0.6047591
-0.33563957,-0.43405026,0.026175022,-0.8290354,-0.3664647,-0.4435493,0.6950871,0.5022706,0.036446393,-0.28776777,0.31998497,-0.6065569
-0.2846667,-0.42942703,0.31334734,-0.86639196,-0.29490045,-0.4673759,0.6950871,0.5022706,0.036446393,-0.30501777,0.31971663,-0.609643
-0.26100376,-0.42980573,0.36067474,-0.8889132,-0.38983765,-0.46652496,0.6808257,0.52068317,0.048849523,-0.3225805,0.3176915,-0.6110773
-0.27877218,-0.49604297,0.1490264,-0.8964923,-0.4665314,-0.4426353,0.6808257,0.52068317,0.048849523,-0.34012476,0.31446213,-0.6113751
-0.2972244,-0.53090274,0.028777838,-0.9,-0.45456636,-0.44013596,0.6702546,0.5521482,0.07475734,-0.35774493,0.3114807,-0.611742
-0.30130953,-0.52591425,-0.0184803,-0.89425945,-0.40425974,-0.43936366,0.6702546,0.5521482,0.07475734,-0.37531918,0.30935496,-0.6127237
-0.2971865,-0.5485181,0.071857214,-0.87524515,-0.35374495,-0.43599588,0.6827252,0.5742322,0.14463931,-0.3925705,0.30812743,-0.6146616
-0.2863001,-0.56212634,0.14865637,-0.8364677,-0.3639527,-0.4403904,0.6827252,0.5742322,0.14463931,-0.40900195,0.30663317,-0.61617243
-0.28832793,-0.5789163,0.10332596,-0.7741048,-0.43450612,-0.45740846,0.68417,0.6075007,0.15014231,-0.42403644,0.3037878,-0.616845
-0.31309867,-0.5968805,-0.048580885,-0.6861801,-0.4948636,-0.46438104,0.68417,0.6075007,0.15014231,-0.43714398,0.29985726,-0.6165198
-0.34158793,-0.5877075,-0.1811328,-0.5842431,-0.49915677,-0.46977493,0.6719518,0.6137022,0.18359941,-0.44812763,0.29582226,-0.6160525
-0.34028113,-0.56500375,-0.18574893,-0.48658833,-0.47546244,-0.4697163,0.6719518,0.6137022,0.18359941,-0.45712066,0.29214948,-0.6160004
-0.33161303,-0.5389625,-0.14718091,-0.4028171,-0.45415887,-0.45550877,0.6614574,0.6346126,0.19635761,-0.46438456,0.28899455,-0.6162424
-0.32331604,-0.52752805,-0.09175742,-0.3440423,-0.44874793,-0.44046876,0.6614574,0.6346126,0.19635761,-0.47041273,0.2860732,-0.6161388
-0.3093143,-0.528129,-0.08498812,-0.30304247,-0.44897288,-0.42475295,0.6576822,0.6400011,0.20480192,-0.4755627,0.28335088,-0.6157528
-0.30216756,-0.5369529,-0.10783148,-0.27193505,-0.44407415,-0.40748364,0.6576822,0.6400011,0.20480192,-0.4800514,0.28088412,-0.61520934
-0.29103547,-0.55407745,-0.12345886,-0.24257249,-0.43751276,-0.3942312,0.65072167,0.6425372,0.20012641,-0.48391962,0.2786953,-0.61435544
-0.2861884,-0.5753368,-0.11596012,-0.21498396,-0.43051302,-0.38332108,0.65072167,0.6425372,0.20012641,-0.48721445,0.27672228,-0.6136768
-0.27624,-0.5831188,-0.13772559,-0.1882303,-0.42976278,-0.38400418,0.6479714,0.6525521,0.19174153,-0.48995322,0.2747773,-0.61294496
-0.2591743,-0.5923377,-0.1366185,-0.16456491,-0.42264175,-0.37774658,0.6479714,0.6525521,0.19174153,-0.4922067,0.27299327,-0.6123103
-0.25252968,-0.60450906,-0.118103385,-0.14842989,-0.4185648,-0.37561062,0.63685787,0.65282637,0.1952213,-0.49412644,0.27132025,-0.61166394
-0.24795108,-0.6144477,-0.10779214,-0.141242,-0.41882592,-0.37990102,0.63685787,0.65282637,0.1952213,-0.4959048,0.269571,-0.6111169
-0.24219306,-0.6246112,-0.1072911,-0.13909377,-0.41897658,-0.38064435,0.64191186,0.6571648,0.17014253,-0.49763578,0.26783276,-0.61023057
-0.24249706,-0.6353531,-0.09920621,-0.13785496,-0.4135774,-0.3828902,0.64191186,0.6571648,0.17014253,-0.49935603,0.26612887,-0.6098099
-0.24188942,-0.64580905,-0.08432388,-0.13508284,-0.41661343,-0.38472107,0.64834106,0.66808873,0.20082831,-0.5010154,0.26438546,-0.6099037
-0.23719802,-0.64838004,-0.09225106,-0.1354722,-0.4183293,-0.38459557,0.64834106,0.66808873,0.20082831,-0.502681,0.26259178,-0.60941327
-0.22528002,-0.6465482,-0.1184634,-0.1392131,-0.412779,-0.38332427,0.6413791,0.6706248,0.1961528,-0.50442904,0.26092058,-0.6090257
-0.2158808,-0.6502274,-0.13235545,-0.1441861,-0.40780744,-0.38257903,0.6413791,0.6706248,0.1961528,-0.5062893,0.25930947,-0.6086867
-0.2067998,-0.6459035,-0.14290607,-0.15371361,-0.39871672,-0.383023,0.64222145,0.6674834,0.17478174,-0.50835764,0.2578486,-0.6080055
-0.20027734,-0.6431808,-0.15154779,-0.16614246,-0.39097553,-0.3847494,0.64222145,0.6674834,0.17478174,-0.51070106,0.2564619,-0.60799
-0.19956517,-0.63558406,-0.16083086,-0.1784068,-0.38311583,-0.38633093,0.6331984,0.668652,0.21255928,-0.513311,0.25519738,-0.6084825
-0.20549883,-0.6403894,-0.17354834,-0.19145152,-0.37309438,-0.38640034,0.6331984,0.668652,0.21255928,-0.51620716,0.2540534,-0.60880315
-0.20736392,-0.6429864,-0.16102588,-0.20220533,-0.36878014,-0.3878965,0.635116,0.6832424,0.18760604,-0.51933146,0.25297534,-0.6090629
-0.20866549,-0.64974654,-0.17070699,-0.2098048,-0.3655312,-0.39178246,0.635116,0.6832424,0.18760604,-0.52262425,0.25187367,-0.60958385
-0.2084174,-0.65076095,-0.1726203,-0.21658073,-0.35991365,-0.3923605,0.6267998,0.68660516,0.21271616,-0.5260645,0.2508687,-0.61040974
-0.2084478,-0.65146327,-0.17490399,-0.22160733,-0.35482657,-0.3910672,0.6267998,0.68660516,0.21271616,-0.5296155,0.2499264,-0.61110675
-0.21189767,-0.647493,-0.16848171,-0.2241309,-0.3500338,-0.3886115,0.640064,0.69244325,0.24798,-0.5332222,0.24910666,-0.6123352
-0.21671195,-0.6507802,-0.17822623,-0.2253882,-0.347982,-0.38397902,0.640064,0.69244325,0.24798,-0.5368529,0.2483447,-0.61305463
-0.21986124,-0.6560062,-0.17434275,-0.2231225,-0.34345558,-0.3816265,0.6296561,0.6949127,0.23879248,-0.54043734,0.24769504,-0.61357725
-0.21823634,-0.659321,-0.16604519,-0.21801095,-0.33859977,-0.3785568,0.6296561,0.6949127,0.23879248,-0.54392165,0.24712805,-0.61439276
-0.21778879,-0.6641416,-0.15121508,-0.21084829,-0.33603504,-0.37538323,0.64043224,0.7079799,0.25706685,-0.5472562,0.24665889,-0.6154866
-0.17615934,-0.68548995,-0.26880145,-0.21171904,-0.3378242,-0.37647623,0.64043224,0.7079799,0.25706685,-0.5506079,0.246123,-0.6162839
-0.214468,-0.6769315,-0.26438808,-0.22080007,-0.34579688,-0.3821507,0.6055794,0.7075538,0.22044373,-0.5541379,0.24541941,-0.6162547
-0.2120027,-0.67139035,-0.23152971,-0.21182661,-0.3274879,-0.38319272,0.6055794,0.7075538,0.22044373,-0.5575123,0.24493532,-0.61732924
-0.19523223,-0.66090906,-0.12257564,-0.18628561,-0.30285782,-0.3795985,0.61149395,0.71616405,0.2595442,-0.5603874,0.24485861,-0.61922383
-0.19682322,-0.6507236,-0.053405285,-0.16340137,-0.30337504,-0.37567908,0.61149395,0.71616405,0.2595442,-0.5627833,0.24479507,-0.6206598
-0.20778376,-0.6526659,-0.06531942,-0.16325998,-0.3187665,-0.37225872,0.6215826,0.7112624,0.272892,-0.565148,0.24458386,-0.6217462
-0.20575604,-0.6634747,-0.10691464,-0.17579117,-0.3335373,-0.3750622,0.6215826,0.7112624,0.272892,-0.56775653,0.24410944,-0.6225933
-0.20400436,-0.6724037,-0.15673673,-0.18322538,-0.33671644,-0.3810902,0.621379,0.71926725,0.28594416,-0.57051766,0.24353561,-0.62363386
-0.19947341,-0.6769808,-0.17575812,-0.18058622,-0.3336611,-0.38287172,0.621379,0.71926725,0.28594416,-0.5732321,0.24295346,-0.6245729
-0.19973826,-0.6793432,-0.1898495,-0.17401046,-0.32869482,-0.38183254,0.6347785,0.71976876,0.31250775,-0.5758132,0.24247336,-0.62585545
-0.20338823,-0.68509525,-0.20290947,-0.16716075,-0.32673216,-0.37865868,0.6347785,0.71976876,0.31250775,-0.57825404,0.24203366,-0.62687206
-0.19774154,-0.6932087,-0.21052754,-0.16368519,-0.32673642,-0.37476507,0.6282629,0.72728586,0.30376935,-0.58061504,0.24166407,-0.6277406
-0.19525665,-0.6979445,-0.22060168,-0.1640131,-0.32835084,-0.37218517,0.6282629,0.72728586,0.30376935,-0.5829815,0.24128218,-0.6286422
-0.19522518,-0.70160514,-0.22510433,-0.1667673,-0.32860368,-0.3699409,0.6356598,0.73761815,0.31317985,-0.58539957,0.2409475,-0.6296563
-0.19455312,-0.70818716,-0.2190082,-0.16881673,-0.32827377,-0.36620653,0.6356598,0.73761815,0.31317985,-0.58786017,0.24064043,-0.63048303
-0.2008349,-0.7113652,-0.21828198,-0.16970877,-0.33166003,-0.35983813,0.62461317,0.7352241,0.3123079,-0.5903242,0.24039184,-0.6309794
-0.20567861,-0.7145224,-0.21150005,-0.16818014,-0.33328876,-0.35456234,0.62461317,0.7352241,0.3123079,-0.59275365,0.24016842,-0.6315632
-0.21004145,-0.72397876,-0.18628728,-0.16519964,-0.3364611,-0.3527939,0.61337256,0.73294866,0.3156919,-0.59511054,0.23994698,-0.63189924
-0.19808662,-0.7228627,-0.20784771,-0.16217056,-0.34977368,-0.34960505,0.61337256,0.73294866,0.3156919,-0.5973869,0.23957214,-0.6320945
-0.19618179,-0.72100866,-0.24598384,-0.15986156,-0.33889854,-0.34654266,0.6134994,0.7354984,0.31578934,-0.5996238,0.2394,-0.6323565
-0.19631816,-0.7202356,-0.19208002,-0.15891667,-0.33277455,-0.34835157,0.6134994,0.7354984,0.31578934,-0.60185564,0.23926014,-0.6328728
-0.19904481,-0.72497934,-0.16027999,-0.1578179,-0.3525556,-0.35937983,0.603217,0.74051857,0.30669594,-0.6040408,0.23873876,-0.63295114
-0.19533202,-0.71581197,-0.20894027,-0.15774527,-0.36364967,-0.36696416,0.603217,0.74051857,0.30669594,-0.6062196,0.23795204,-0.6330701
-0.20330155,-0.7247807,-0.20939076,-0.1554316,-0.36362255,-0.36507246,0.6201309,0.73841745,0.33342123,-0.60834444,0.23721403,-0.63332653
-0.2105527,-0.7357283,-0.21111369,-0.14757481,-0.36997953,-0.37442368,0.6201309,0.73841745,0.33342123,-0.6103089,0.23624611,-0.6334013
-0.20715936,-0.73505574,-0.23179305,-0.13690726,-0.37488407,-0.38582328,0.6017262,0.7466829,0.345182,-0.61205,0.23508629,-0.6337608
-0.21099491,-0.72579366,-0.24776673,-0.12626493,-0.37632248,-0.3910809,0.6017262,0.7466829,0.345182,-0.6135761,0.23381335,-0.63389814
-0.21685515,-0.7219263,-0.24729478,-0.11331527,-0.37622607,-0.3931761,0.60256016,0.7514278,0.33261037,-0.61482954,0.23253478,-0.63393676
-0.21635643,-0.72292924,-0.2503897,-0.099008024,-0.37531137,-0.39675188,0.60256016,0.7514278,0.33261037,-0.6157951,0.2311975,-0.63415575
-0.21900527,-0.72384936,-0.2634567,-0.0839389,-0.3703672,-0.40083018,0.62445974,0.7563334,0.33860713,-0.6164524,0.2298902,-0.6345972
-0.22146037,-0.7179157,-0.27358603,-0.06860011,-0.36587217,-0.4059171,0.62445974,0.7563334,0.33860713,-0.6168058,0.22854702,-0.635111
-0.22049889,-0.7127371,-0.2656777,-0.05271046,-0.36204702,-0.41017056,0.6031891,0.7641777,0.33309096,-0.6168321,0.22721767,-0.63581693
-0.21460645,-0.71383584,-0.2632842,-0.034964826,-0.36122778,-0.41692594,0.6031891,0.7641777,0.33309096,-0.61650056,0.22578377,-0.6365526
-0.2105961,-0.71452194,-0.25187504,-0.017735519,-0.3588732,-0.4241867,0.6025504,0.7593142,0.3414082,-0.6158139,0.22430536,-0.6374786
-0.20673612,-0.7226611,-0.24382234,-0.00083935633,-0.35939693,-0.43350002,0.6025504,0.7593142,0.3414082,-0.6147872,0.22267154,-0.63844717
-0.20070192,-0.72460204,-0.23396862,0.014960483,-0.36273322,-0.44351333,0.5992967,0.75913006,0.33264005,-0.61342895,0.22088486,-0.6393827
-0.19761306,-0.7299811,-0.23101771,0.030675344,-0.3647107,-0.44931552,0.5992967,0.75913006,0.33264005,-0.611751,0.21897353,-0.64043605
-0.19164172,-0.7363103,-0.22487247,0.046837635,-0.36844268,-0.45543808,0.5987166,0.7594846,0.34540486,-0.6097318,0.21696019,-0.6417674
-0.18235603,-0.73626226,-0.22650433,0.06261543,-0.37033907,-0.4568801,0.5987166,0.7594846,0.34540486,-0.6073875,0.21488033,-0.6428087
-0.17634118,-0.73660886,-0.2125349,0.080732495,-0.37087938,-0.45719573,0.5970025,0.7662406,0.31139457,-0.6046595,0.2128148,-0.6436386
-0.17758368,-0.7407458,-0.19968414,0.09772745,-0.3731677,-0.4588527,0.5970025,0.7662406,0.31139457,-0.6015828,0.2106785,-0.6446638
-0.17554015,-0.7331428,-0.19130683,0.11409719,-0.37569728,-0.45956928,0.5971379,0.760904,0.3026926,-0.5981571,0.20852691,-0.64554584
-0.18097582,-0.730342,-0.16725957,0.12718841,-0.37840664,-0.4581403,0.5971379,0.760904,0.3026926,-0.5944612,0.20633975,-0.64648056
-0.17845327,-0.7244328,-0.17180514,0.1369008,-0.3824334,-0.46294856,0.5867982,0.7607052,0.28915316,-0.5905562,0.20406431,-0.64739716
-0.1767152,-0.7250622,-0.19549906,0.14063218,-0.3867783,-0.47340134,0.5867982,0.7607052,0.28915316,-0.5865811,0.20157409,-0.64837885
-0.17080706,-0.7287703,-0.20583272,0.13826323,-0.38684884,-0.4861108,0.58354604,0.760521,0.28038508,-0.5826567,0.19894528,-0.64961135
-0.16187522,-0.7299425,-0.21541607,0.13441251,-0.3799769,-0.49436998,0.58354604,0.760521,0.28038508,-0.5788279,0.19628039,-0.65101314
-0.15982366,-0.7361587,-0.20837343,0.1291654,-0.3765989,-0.5032849,0.5593523,0.76272595,0.25314283,-0.57510906,0.1935741,-0.6524652
-0.15587324,-0.738481,-0.20619285,0.12540711,-0.37191206,-0.51135236,0.5593523,0.76272595,0.25314283,-0.5714807,0.19080947,-0.65426385
-0.15460521,-0.72872967,-0.19466484,0.12334013,-0.36870834,-0.5183714,0.5733988,0.76020366,0.26258963,-0.56789523,0.18803057,-0.6564417
-0.153088,-0.72627187,-0.1815455,0.12278308,-0.36317486,-0.5233427,0.5733988,0.76020366,0.26258963,-0.5643301,0.18524523,-0.6585883
-0.147475,-0.7213319,-0.17692947,0.12117042,-0.36069876,-0.53003216,0.5605042,0.76990217,0.23641098,-0.5607963,0.18244117,-0.66090345
-0.14063093,-0.7189582,-0.17887414,0.121357724,-0.3585631,-0.5346662,0.5605042,0.76990217,0.23641098,-0.5572638,0.17959175,-0.6633109
-0.13620108,-0.72045547,-0.16121626,0.11969669,-0.36109343,-0.5407872,0.5601933,0.75958455,0.23177171,-0.5537586,0.17666237,-0.6656076
-0.12909567,-0.7109306,-0.1635729,0.11947523,-0.37256837,-0.5520406,0.5601933,0.75958455,0.23177171,-0.55025643,0.17341647,-0.6680045
-0.12490907,-0.7022115,-0.16605854,0.11576028,-0.38335687,-0.5577788,0.5289624,0.7748792,0.21300358,-0.54682,0.16998231,-0.6705245
-0.11879564,-0.70008206,-0.18028593,0.11399393,-0.39288622,-0.5606686,0.5289624,0.7748792,0.21300358,-0.54341483,0.16636029,-0.6726868
-0.11503278,-0.70034677,-0.19590378,0.11240722,-0.39898086,-0.56870675,0.5313916,0.7624321,0.22554708,-0.5400352,0.16258481,-0.6749629
-0.11639476,-0.69068164,-0.20490003,0.11053911,-0.39965022,-0.5762156,0.5313916,0.7624321,0.22554708,-0.53669536,0.15868902,-0.67724013
-0.11778264,-0.6794622,-0.206231,0.10740155,-0.40009412,-0.58228815,0.53240836,0.77494586,0.21751726,-0.533416,0.15474655,-0.6799413
-0.11861794,-0.66411954,-0.21743858,0.104930446,-0.39944133,-0.5832738,0.53240836,0.77494586,0.21751726,-0.5301851,0.15078302,-0.68235373
-0.117920354,-0.66090715,-0.20684326,0.10633415,-0.39391214,-0.57946205,0.5236949,0.7632461,0.15678811,-0.5269154,0.14697386,-0.6838504
-0.11472075,-0.65329635,-0.19425976,0.10517508,-0.38919038,-0.5817181,0.5236949,0.7632461,0.15678811,-0.5236723,0.14319527,-0.6864674
-0.11011942,-0.6456581,-0.18880379,0.10534687,-0.37903184,-0.57957387,0.51250315,0.77407503,0.17341757,-0.5204223,0.13962801,-0.6897186
-0.10682987,-0.6352574,-0.16743624,0.10743871,-0.37136373,-0.57799137,0.51250315,0.77407503,0.17341757,-0.5171254,0.13617417,-0.6926446
-0.10158031,-0.62761426,-0.14305472,0.10946238,-0.36489022,-0.57538664,0.49320722,0.7723765,0.19330382,-0.5137819,0.1328862,-0.6961858
-0.09392741,-0.6250214,-0.120336294,0.11106776,-0.3577702,-0.57712543,0.49320722,0.7723765,0.19330382,-0.51040095,0.12966487,-0.69937825
-0.08535317,-0.6250781,-0.11426854,0.11400756,-0.3531087,-0.5765828,0.50612414,0.7762565,0.15597725,-0.5069513,0.12655525,-0.70241463
-0.08063187,-0.62237066,-0.107346416,0.120315924,-0.34789914,-0.5763197,0.50612414,0.7762565,0.15597725,-0.5033679,0.12351492,-0.7058047
-0.08298887,-0.6271846,-0.059702992,0.13007723,-0.34633467,-0.5776003,0.5029472,0.76551765,0.13405949,-0.49957275,0.120519295,-0.7087513
-0.084887266,-0.6200625,-0.050723672,0.14231187,-0.35186136,-0.57925534,0.5029472,0.76551765,0.13405949,-0.4955207,0.11741318,-0.7121471
-0.100683615,-0.6206266,-0.11704612,0.15487368,-0.34412846,-0.58012223,0.4857056,0.77307296,0.12029225,-0.49120086,0.11445602,-0.7158067
-0.08823018,-0.60731703,-0.113815546,0.17009725,-0.3156946,-0.5858691,0.4857056,0.77307296,0.12029225,-0.4865597,0.11185446,-0.71996534
-0.07267705,-0.60153556,-0.05604613,0.1917963,-0.31178156,-0.60080874,0.47575235,0.772638,0.0982424,-0.48145908,0.10918667,-0.7243142
-0.06480975,-0.59563625,-0.055214286,0.21135065,-0.31405884,-0.6247828,0.47575235,0.772638,0.0982424,-0.47594553,0.10620689,-0.7290932
-0.050360434,-0.5859395,-0.026624441,0.225093,-0.31673002,-0.64943165,0.468598,0.7752916,0.097821236,-0.47013587,0.102960594,-0.7344856
-0.03572332,-0.5776061,-0.015658855,0.23348406,-0.31917074,-0.66869205,0.468598,0.7752916,0.097821236,-0.46414,0.09946223,-0.73986244
-0.02397427,-0.57536113,0.010467529,0.23380563,-0.3209549,-0.67883396,0.46094012,0.7677462,0.09701687,-0.45812404,0.09588368,-0.74547505
-0.016627088,-0.5766821,0.061038494,0.22945204,-0.33261463,-0.6816989,0.46094012,0.7677462,0.09701687,-0.4521889,0.0920983,-0.75088155
-0.004055377,-0.5814294,0.075969815,0.2261326,-0.34873322,-0.66561115,0.43094617,0.77177703,0.039569497,-0.4463151,0.088293865,-0.7554542
-0.014143672,-0.60279536,0.047736883,0.22342452,-0.35555923,-0.64887816,0.43094617,0.77177703,0.039569497,-0.44049454,0.084572114,-0.76006687
-0.025347196,-0.62228197,0.09689975,0.22283277,-0.36582297,-0.6479498,0.4440263,0.7698463,0.07029152,-0.4346798,0.080753066,-0.76501644
-0.022128753,-0.620034,0.061729908,0.22181562,-0.3755135,-0.6545383,0.4440263,0.7698463,0.07029152,-0.42887557,0.076705396,-0.76945937
-0.024767881,-0.60403997,0.08727431,0.21480286,-0.377553,-0.6444202,0.42379183,0.7744306,0.03914827,-0.4232102,0.07278759,-0.7738581
-0.025767276,-0.60353404,0.09544647,0.20161474,-0.38347864,-0.6306213,0.42379183,0.7744306,0.03914827,-0.4178158,0.06891865,-0.7778816
-0.01041447,-0.6039005,0.11759567,0.18936217,-0.38738388,-0.6244315,0.42476946,0.7659536,0.009075224,-0.41266882,0.06509785,-0.7813996
0.005221799,-0.6038281,0.13320446,0.17612346,-0.3940123,-0.6256828,0.42476946,0.7659536,0.009075224,-0.40779114,0.06115135,-0.7852447
0.0037995242,-0.5902011,0.1422844,0.16276538,-0.40233523,-0.62548375,0.3961702,0.76079625,-0.010203242,-0.4031849,0.05711333,-0.78883576
0.0026434474,-0.5838442,0.12188017,0.14926112,-0.40467575,-0.6251758,0.3961702,0.76079625,-0.010203242,-0.39885092,0.05303239,-0.7925658
0.0015088841,-0.5794443,0.13800359,0.13720125,-0.40766457,-0.62999547,0.39648116,0.7711148,-0.0055640936,-0.39475882,0.048897788,-0.79680073
0.0050741136,-0.56913614,0.13639033,0.12805803,-0.41028482,-0.640618,0.39648116,0.7711148,-0.0055640936,-0.3908388,0.04459905,-0.8007399
0.016714983,-0.5483696,0.14309704,0.12316029,-0.4117079,-0.65050554,0.3900422,0.76807725,-0.027450442,-0.3870043,0.04021883,-0.80470634
0.015756913,-0.53767806,0.15996313,0.123020425,-0.4235567,-0.6543103,0.3900422,0.76807725,-0.027450442,-0.38316563,0.03559026,-0.80871546
0.02058433,-0.5223657,0.13120556,0.12853403,-0.4194295,-0.6604462,0.3757419,0.7654991,-0.03709042,-0.37919366,0.031014614,-0.8128561
0.017635733,-0.5131267,0.15574276,0.13694412,-0.41996655,-0.6596991,0.3757419,0.7654991,-0.03709042,-0.3750347,0.02642978,-0.81706214
0.003994979,-0.5124873,0.14338624,0.15015352,-0.420535,-0.6684927,0.34687203,0.7710149,-0.038965106,-0.3705841,0.021797575,-0.8218113
0.006288536,-0.49041307,0.15306711,0.16596794,-0.41349834,-0.671893,0.34687203,0.7710149,-0.038965106,-0.36578047,0.01724767,-0.8263718
0.025447972,-0.4784845,0.16436636,0.17659365,-0.4182949,-0.6695334,0.35122883,0.7652718,-0.060172558,-0.36074853,0.012687877,-0.8306693
0.020515412,-0.4639513,0.14495242,0.18711291,-0.41793185,-0.6664424,0.35122883,0.7652718,-0.060172558,-0.3554866,0.008163296,-0.83515096
0.033372894,-0.46507353,0.16355085,0.20540103,-0.4154886,-0.66537964,0.33859503,0.7721845,-0.09495747,-0.34983075,0.0037460476,-0.8396987
0.029241964,-0.45670545,0.1587919,0.21656531,-0.41957864,-0.65488863,0.33859503,0.7721845,-0.09495747,-0.3439429,-0.0006438866,-0.8440484
0.027452603,-0.46591944,0.12667096,0.22979113,-0.41140234,-0.64728165,0.3302971,0.7597746,-0.087444544,-0.33776894,-0.004761599,-0.8484727
0.043970235,-0.4684282,0.16481614,0.24132329,-0.40503153,-0.6451839,0.3302971,0.7597746,-0.087444544,-0.3313375,-0.008744195,-0.8529457
0.049581185,-0.4529539,0.15996897,0.25251558,-0.40565997,-0.6382008,0.2909035,0.75732374,-0.10740185,-0.3246717,-0.012613788,-0.8575492
0.0528469,-0.44240355,0.15719914,0.25634667,-0.400243,-0.62679076,0.2909035,0.75732374,-0.10740185,-0.31792054,-0.016281098,-0.861861
0.05420366,-0.4320092,0.16358268,0.25995722,-0.39434648,-0.60617244,0.29590875,0.7485578,-0.14572608,-0.3111035,-0.01960197,-0.8656213
0.06954564,-0.43663713,0.17034376,0.26864967,-0.38355798,-0.5891298,0.29590875,0.7485578,-0.14572608,-0.30410746,-0.022574857,-0.8695892
0.07115379,-0.43349907,0.18799078,0.27173755,-0.3750362,-0.5688946,0.29675102,0.74541634,-0.16709709,-0.29705882,-0.025160536,-0.8733413
0.08034611,-0.43677524,0.24573243,0.27165446,-0.37365705,-0.5515231,0.29675102,0.74541634,-0.16709709,-0.29002562,-0.027574718,-0.8768538
0.092344835,-0.43738332,0.2697239,0.26853985,-0.37866226,-0.534221,0.28870416,0.7381079,-0.15939271,-0.28308308,-0.02988197,-0.88034964
0.110832945,-0.43752494,0.2364111,0.25967115,-0.37539977,-0.51956505,0.28870416,0.7381079,-0.15939271,-0.27633354,-0.032015875,-0.8833395
0.12370026,-0.43204647,0.2580309,0.24425003,-0.37267134,-0.5018827,0.27895582,0.72966814,-0.19449472,-0.26992422,-0.033908114,-0.88597345
0.13059856,-0.42050794,0.25312686,0.22517946,-0.37793213,-0.4854656,0.27895582,0.72966814,-0.19449472,-0.2639348,-0.035779238,-0.8883796
0.13854985,-0.41571113,0.24429262,0.20430976,-0.37669155,-0.4734469,0.28956604,0.7191938,-0.19835925,-0.25839418,-0.037490875,-0.89053583
0.14651778,-0.40973523,0.21356308,0.184842,-0.37541157,-0.45791388,0.28956604,0.7191938,-0.19835925,-0.25327525,-0.03907405,-0.8925173
0.14535539,-0.40065587,0.17192781,0.16910642,-0.35526195,-0.43801433,0.2722742,0.7136446,-0.22537363,-0.2484943,-0.040086284,-0.8943633
0.13296857,-0.39763582,0.2408266,0.15873484,-0.35892364,-0.4270128,0.2722742,0.7136446,-0.22537363,-0.24394539,-0.04110384,-0.8960048
0.12133218,-0.38019666,0.2015835,0.14806655,-0.34908697,-0.41153997,0.26826614,0.69815993,-0.2347182,-0.23963404,-0.041785195,-0.8972858
0.10797915,-0.35701853,0.24871314,0.13833119,-0.34447497,-0.39212897,0.26826614,0.69815993,-0.2347182,-0.2355484,-0.04225591,-0.8984765
0.10666834,-0.3393916,0.24289191,0.13094854,-0.33632502,-0.3668387,0.25773263,0.6980796,-0.24400318,-0.23165274,-0.04235442,-0.8994843
0.11228134,-0.32950348,0.2640406,0.12287347,-0.329032,-0.34029397,0.25773263,0.6980796,-0.24400318,-0.22795689,-0.042147323,-0.8999162
0.10421069,-0.31324673,0.28429878,0.11611956,-0.32929462,-0.318154,0.28328192,0.6950469,-0.24654484,-0.22444102,-0.04175955,-0.9000001
0.08940244,-0.29824856,0.2677344,0.113327265,-0.3271743,-0.2901539,0.28328192,0.6950469,-0.24654484,-0.22102383,-0.041161597,-0.89954615
0.08042136,-0.2898992,0.30849254,0.12125109,-0.3187846,-0.26136714,0.2802989,0.68418956,-0.272717,-0.2174828,-0.04017669,-0.8984947
0.07649912,-0.28459683,0.3665117,0.13993993,-0.32327282,-0.2309113,0.2802989,0.68418956,-0.272717,-0.21360537,-0.039099514,-0.89700294
0.06476272,-0.27149877,0.34920847,0.15717447,-0.32321483,-0.1947574,0.2760871,0.6767097,-0.26900923,-0.20943016,-0.037753984,-0.89502466
0.06291355,-0.26597586,0.360201,0.17507957,-0.31394032,-0.15258,0.2760871,0.6767097,-0.26900923,-0.20493865,-0.03598325,-0.8921907
0.07276653,-0.26852512,0.35183167,0.19454674,-0.3140794,-0.11772385,0.27986372,0.6713213,-0.27745366,-0.20009807,-0.033970326,-0.88895106
0.06799186,-0.25759175,0.3623402,0.21136561,-0.31133667,-0.08481422,0.27986372,0.6713213,-0.27745366,-0.19495231,-0.031737044,-0.88488114
0.072974265,-0.25952795,0.3775556,0.23277465,-0.31011215,-0.056539267,0.30402678,0.6402392,-0.28105235,-0.18939933,-0.0292961,-0.8799467
0.08450197,-0.2608843,0.35372066,0.2547893,-0.30569974,-0.031150252,0.30402678,0.6402392,-0.28105235,-0.18342048,-0.026663601,-0.87491024
0.088194564,-0.25937963,0.32438326,0.26484227,-0.2985707,0.0030211508,0.3048789,0.6292124,-0.31122124,-0.1772722,-0.023684666,-0.86935484
0.07838136,-0.25302726,0.25758183,0.27630326,-0.28471228,0.045915127,0.3048789,0.6292124,-0.31122124,-0.17093042,-0.020238057,-0.86304116
0.075828284,-0.25144047,0.2895912,0.2924426,-0.27843237,0.08807534,0.31850004,0.6059363,-0.31530714,-0.164298,-0.016434357,-0.8559849
0.08262788,-0.24560085,0.27474988,0.3172105,-0.2737704,0.12013087,0.31850004,0.6059363,-0.31530714,-0.15718034,-0.01243341,-0.8483249
0.09970562,-0.24457696,0.22182679,0.32930604,-0.25974578,0.14583036,0.33393145,0.57892716,-0.36203933,-0.14982003,-0.008041643,-0.8400315
0.0935832,-0.2210648,0.17946589,0.32543513,-0.2438102,0.17357287,0.33393145,0.57892716,-0.36203933,-0.14255089,-0.0032684132,-0.83153987
0.080095366,-0.20294797,0.1415652,0.3163119,-0.21788834,0.21034008,0.33949733,0.55622804,-0.34962308,-0.13548101,0.0021841824,-0.8227298
0.07625531,-0.19104616,0.14797425,0.30934978,-0.19144148,0.24636185,0.33949733,0.55622804,-0.34962308,-0.12855938,0.008261479,-0.8131863
0.0772942,-0.17693636,0.15949333,0.3058253,-0.16503604,0.2807135,0.35408634,0.5323614,-0.37498426,-0.12170416,0.015001424,-0.803175
0.07215196,-0.16395257,0.18390286,0.3088824,-0.14332974,0.31631202,0.35408634,0.5323614,-0.37498426,-0.11477853,0.022255056,-0.7925514
0.0684901,-0.15710948,0.20801234,0.31041193,-0.11909862,0.3487621,0.38151276,0.49357703,-0.37861264,-0.10779756,0.030099742,-0.7811568
0.06510051,-0.15015163,0.2765751,0.307085,-0.09432542,0.37945676,0.38151276,0.49357703,-0.37861264,-0.10085946,0.038483262,-0.76953745
0.06605469,-0.1318013,0.34134912,0.29514188,-0.07180014,0.41093582,0.41736263,0.46975243,-0.38965988,-0.094130054,0.04740625,-0.75743926
0.07417324,-0.11982864,0.41482258,0.26875687,-0.053076357,0.44423473,0.41736263,0.46975243,-0.38965988,-0.087908745,0.05674697,-0.7447022
0.079176545,-0.115037635,0.43754518,0.22892785,-0.03585154,0.47533256,0.44967723,0.434951,-0.33736193,-0.082457125,0.066514835,-0.73148
0.08440375,-0.10687281,0.47087932,0.17735441,-0.017422765,0.50507754,0.44967723,0.434951,-0.33736193,-0.078016534,0.076688856,-0.71766317
0.08775748,-0.099983335,0.47881532,0.11844742,-0.0035987794,0.5381633,0.45327812,0.4139083,-0.35914576,-0.07472232,0.08724472,-0.70333195
0.091560215,-0.0953282,0.4784727,0.059399076,0.0020931363,0.56933004,0.45327812,0.4139083,-0.35914576,-0.07257792,0.09797682,-0.6883129
0.0840109,-0.0878015,0.45958006,0.006031826,0.0067925155,0.59582055,0.50987566,0.38781214,-0.34746444,-0.07144354,0.1089026,-0.67272484
0.06832819,-0.08511858,0.44849718,-0.04147411,0.010812491,0.6198535,0.50987566,0.38781214,-0.34746444,-0.07120347,0.11997481,-0.6567583
0.038687006,-0.086986594,0.4412632,-0.081927545,0.010578483,0.6424047,0.514086,0.36594075,-0.30526245,-0.0716898,0.1311513,-0.640458
-0.009002164,-0.097435996,0.4237336,-0.113729075,0.010862201,0.66570765,0.514086,0.36594075,-0.30526245,-0.07273175,0.14242105,-0.6236285
-0.058562,-0.1066294,0.3890028,-0.12974459,0.010073066,0.6892142,0.53179204,0.34759477,-0.3131535,-0.07397786,0.15380555,-0.6063521
-0.11259895,-0.12444089,0.3494295,-0.13306814,0.012024701,0.7107328,0.53179204,0.34759477,-0.3131535,-0.07517736,0.165323,-0.58870006
-0.15870965,-0.12970312,0.3352337,-0.12959987,0.012198925,0.7273015,0.5550945,0.3354268,-0.27778554,-0.076167256,0.17694968,-0.5710279
-0.19366227,-0.13023008,0.33810687,-0.13560626,0.008361727,0.75042176,0.5550945,0.3354268,-0.27778554,-0.07715164,0.18859224,-0.5526124
-0.25121656,-0.15153144,0.31135285,-0.14997327,0.0057276785,0.7816212,0.5999383,0.3047414,-0.25430548,-0.078270495,0.20034437,-0.5335046
-0.28381544,-0.17805226,0.2946422,-0.16226767,0.010097444,0.8120022,0.5999383,0.3047414,-0.25430548,-0.07949567,0.21231928,-0.5139322
-0.28308967,-0.20841272,0.27272618,-0.17006227,0.01666984,0.83242977,0.6093477,0.2739855,-0.2546836,-0.08071296,0.22455518,-0.49373102
-0.27552772,-0.23470679,0.26814854,-0.16981128,0.02246496,0.84604025,0.6093477,0.2739855,-0.2546836,-0.08177951,0.23697641,-0.47358346
-0.23926464,-0.25519696,0.2539525,-0.16198738,0.02271679,0.8723428,0.6422341,0.24671683,-0.20635283,-0.08248967,0.2495489,-0.452981
-0.25680476,-0.27916282,0.23519075,-0.15595204,0.01589328,0.8923539,0.6422341,0.24671683,-0.20635283,-0.08289911,0.26205963,-0.4318745
-0.32236493,-0.29462594,0.22702968,-0.15563215,0.0055574775,0.9,0.6624963,0.21847248,-0.2016046,-0.08311954,0.27441317,-0.41047692
-0.38192078,-0.30387184,0.23731887,-0.17293,0.006163329,0.88070834,0.6624963,0.21847248,-0.2016046,-0.08359115,0.2866901,-0.3894751
-0.3941607,-0.29235962,0.28603065,-0.20160218,0.005931586,0.8449482,0.67826664,0.20130882,-0.16694522,-0.08457078,0.2988484,-0.36946177
-0.38122505,-0.27355132,0.32881892,-0.23672128,-0.0042101443,0.80404234,0.67826664,0.20130882,-0.16694522,-0.08622643,0.3106348,-0.34983182
-0.37013638,-0.2551386,0.38368666,-0.28013432,-0.017650247,0.7612796,0.7068951,0.18280609,-0.17406178,-0.08873071,0.32202512,-0.33103848
-0.3805785,-0.24529415,0.43669164,-0.31331974,-0.037590742,0.71651626,0.7068951,0.18280609,-0.17406178,-0.0919047,0.3328517,-0.31289268
-0.3984293,-0.22245619,0.48700523,-0.33611718,-0.05785486,0.6668615,0.71014607,0.15363902,-0.11938226,-0.095542446,0.3431279,-0.29545426
-0.40348658,-0.19896904,0.54358447,-0.3487139,-0.075907975,0.6157389,0.71014607,0.15363902,-0.11938226,-0.09947297,0.35285872,-0.27904677
-0.40880993,-0.16137315,0.59198666,-0.34928516,-0.09360659,0.5736398,0.7201663,0.15140663,-0.10168421,-0.1034181,0.36212516,-0.2637136
-0.4123127,-0.131656,0.6217586,-0.3399976,-0.11145234,0.54870784,0.7201663,0.15140663,-0.10168421,-0.10715482,0.37095565,-0.24840689
-0.4315622,-0.10579273,0.63407815,-0.3218968,-0.13590541,0.5283233,0.72554815,0.12093872,-0.093809605,-0.110464334,0.37926385,-0.23291326
-0.43268424,-0.0788202,0.6082878,-0.29688948,-0.15899765,0.5204956,0.72554815,0.12093872,-0.093809605,-0.11319801,0.38709754,-0.21783757
-0.4458293,-0.08434135,0.5715864,-0.2722792,-0.18211173,0.52221537,0.7378918,0.11728695,-0.12717092,-0.115309656,0.39452577,-0.20258904
-0.4675186,-0.11315411,0.53939617,-0.2596218,-0.19799204,0.5191695,0.7378918,0.11728695,-0.12717092,-0.11709973,0.40162975,-0.1872456
-0.4810633,-0.14803931,0.50404274,-0.26100907,-0.21095486,0.5042056,0.74275064,0.092392676,-0.10208559,-0.11887385,0.4084429,-0.17195678
-0.5105108,-0.18125936,0.44948232,-0.27314773,-0.2200855,0.47877932,0.74275064,0.092392676,-0.10208559,-0.120930955,0.41495863,-0.15721941
-0.547644,-0.21027061,0.41998518,-0.2917688,-0.22821385,0.4560063,0.7450448,0.085282125,-0.08083999,-0.12337205,0.421252,-0.14324498
-0.5759303,-0.24351099,0.42068863,-0.30310354,-0.2398535,0.43895125,0.7450448,0.085282125,-0.08083999,-0.12605838,0.42724118,-0.12913036
-0.60260916,-0.2715548,0.4489951,-0.29165542,-0.25169024,0.41861033,0.7524028,0.074623644,-0.09347272,-0.12849939,0.43294513,-0.115389824
-0.6227316,-0.29340044,0.50106657,-0.25340924,-0.2680358,0.40045345,0.7524028,0.074623644,-0.09347272,-0.13016145,0.4382349,-0.101801395
-0.627662,-0.30679983,0.55889666,-0.1954249,-0.29334003,0.3826921,0.73911905,0.05520701,-0.065231204,-0.13058962,0.4429561,-0.08828664
-0.6239937,-0.31023544,0.6126249,-0.13300857,-0.32605878,0.36713523,0.73911905,0.05520701,-0.065231204,-0.12971088,0.44691187,-0.07485509
-0.6311752,-0.29684263,0.66292536,-0.07193898,-0.36158657,0.35291147,0.7345964,0.037409574,-0.066162705,-0.12751502,0.45007458,-0.061352253
-0.6335071,-0.27353424,0.6938678,-0.01643284,-0.394993,0.3309651,0.7345964,0.037409574,-0.066162705,-0.1241909,0.4523892,-0.048034906
-0.63444024,-0.24883786,0.7188424,0.04550004,-0.4271227,0.3009137,0.73760736,0.024606861,-0.06638408,-0.11961174,0.45387176,-0.0355227
-0.62941754,-0.22282517,0.72404516,0.11205746,-0.45826072,0.27151775,0.73760736,0.024606861,-0.06638408,-0.11372365,0.45448124,-0.022853851
-0.6238607,-0.20911989,0.71928656,0.17877978,-0.48528102,0.24773252,0.72530127,-0.0032868013,-0.06821561,-0.10648124,0.4543614,-0.010324717
-0.6267344,-0.20836815,0.711568,0.23481944,-0.5082927,0.22515053,0.72530127,-0.0032868013,-0.06821561,-0.09815279,0.4535449,0.0017914772
-0.6362196,-0.21142203,0.70295036,0.27686685,-0.52775055,0.20107937,0.718048,-0.026842028,-0.09512758,-0.08900973,0.45213485,0.013690472
-0.64602196,-0.21284759,0.68778455,0.3039344,-0.54326934,0.17333782,0.718048,-0.026842028,-0.09512758,-0.07942705,0.45015162,0.024963379
-0.64461213,-0.20682892,0.6705681,0.31642357,-0.55721736,0.1490829,0.70950866,-0.05223784,-0.09660399,-0.06966373,0.4476945,0.03565836
-0.65161335,-0.19128984,0.665146,0.32588387,-0.5719282,0.13072729,0.70950866,-0.05223784,-0.09660399,-0.05980149,0.44472685,0.04616332
-0.6581159,-0.18137652,0.6662668,0.34190327,-0.5868471,0.123726696,0.69726956,-0.08279881,-0.102787375,-0.049627736,0.44133806,0.05675888
-0.65114015,-0.17965803,0.6674274,0.3646617,-0.6040851,0.1282754,0.69726956,-0.08279881,-0.102787375,-0.039000303,0.4374683,0.067261934
-0.6400189,-0.18568167,0.6622163,0.38366243,-0.62313116,0.13673332,0.6731317,-0.10472798,-0.07967234,-0.027950406,0.4331379,0.07745218
-0.6254665,-0.19824046,0.66638553,0.39721894,-0.6405109,0.1467087,0.6731317,-0.10472798,-0.07967234,-0.01663047,0.4283169,0.08832598
-0.6135483,-0.20808561,0.6865665,0.4068137,-0.65750754,0.15533635,0.6597127,-0.14199302,-0.14587474,-0.005098,0.42305136,0.10049319
-0.6055356,-0.20193282,0.71794856,0.4242342,-0.6736562,0.16880885,0.6597127,-0.14199302,-0.14587474,0.006781742,0.41732278,0.111724615
-0.60955215,-0.17576629,0.73425925,0.4664107,-0.69185376,0.18078458,0.64363,-0.16449815,-0.13926196,0.019545838,0.411124,0.122461796
-0.5878539,-0.14649034,0.74971473,0.52686685,-0.70647544,0.19891024,0.64363,-0.16449815,-0.13926196,0.033550985,0.40445542,0.13412213
-0.5549836,-0.10716812,0.75414073,0.5928814,-0.72107375,0.2185098,0.6115917,-0.20695871,-0.12594223,0.048940375,0.39735335,0.14657974
-0.5126921,-0.06552913,0.7682339,0.6501036,-0.73819417,0.23802114,0.6115917,-0.20695871,-0.12594223,0.0654879,0.38968447,0.15871882
-0.47397032,-0.029377244,0.77830756,0.67980903,-0.75512546,0.2511825,0.58376634,-0.2419394,-0.116330266,0.082623094,0.38148305,0.17066717
-0.45878246,0.00440637,0.79054534,0.67792004,-0.7724148,0.25835347,0.58376634,-0.2419394,-0.116330266,0.09963144,0.37266526,0.18277645
-0.4614917,0.043458786,0.8317219,0.6526315,-0.79126287,0.2545175,0.5785073,-0.2908101,-0.13543367,0.116019785,0.36326295,0.19455028
-0.45955455,0.08688044,0.8749987,0.6159366,-0.81529766,0.2533911,0.5785073,-0.2908101,-0.13543367,0.13152437,0.3531202,0.2060349
-0.43208328,0.13069148,0.9,0.57915455,-0.84286785,0.24527425,0.5397496,-0.31774873,-0.1178,0.14615187,0.3422482,0.21637702
-0.38158494,0.15777272,0.89494646,0.54503584,-0.86412597,0.22844607,0.5397496,-0.31774873,-0.1178,0.15990447,0.33073747,0.2267797
-0.32701975,0.1849442,0.8622793,0.5142991,-0.8829941,0.20213568,0.52101433,-0.35656533,-0.15031576,0.17286608,0.3187415,0.23616362
-0.29691592,0.20566896,0.82421005,0.49193877,-0.89559984,0.16553342,0.52101433,-0.35656533,-0.15031576,0.18516505,0.30637008,0.24473429
-0.27037564,0.21158676,0.75189793,0.47856635,-0.9,0.115326434,0.4884349,-0.37768048,-0.10218787,0.19700757,0.29391915,0.2508912
-0.25955305,0.22717087,0.6527139,0.46699876,-0.8892943,0.059645295,0.4884349,-0.37768048,-0.10218787,0.20841111,0.28167403,0.25690246
-0.25824502,0.2589805,0.5818851,0.4571386,-0.8712882,0.014769167,0.4727496,-0.40830904,-0.112885,0.21948811,0.26986974,0.26120377
-0.2541587,0.2752184,0.55686355,0.45380276,-0.8569668,-0.014665037,0.4727496,-0.40830904,-0.112885,0.23038226,0.25834528,0.26543856
-0.23625004,0.27192163,0.5388564,0.45528156,-0.8445854,-0.031710446,0.44046998,-0.43440425,-0.15446436,0.2412586,0.24710628,0.26935697
-0.22737604,0.25217775,0.5267073,0.4518159,-0.83284414,-0.045895696,0.44046998,-0.43440425,-0.15446436,0.25199068,0.23608181,0.2726953
-0.21216181,0.22381471,0.5134915,0.4414792,-0.8194653,-0.06313315,0.41867638,-0.4503386,-0.09685838,0.26247412,0.22538894,0.27478528
-0.20879677,0.20127442,0.50771236,0.4208961,-0.8028011,-0.084482044,0.41867638,-0.4503386,-0.09685838,0.27246463,0.21504715,0.27717066
-0.20271677,0.1881214,0.49394047,0.39138827,-0.7871405,-0.1056886,0.38810098,-0.47530437,-0.09563136,0.281819,0.20510793,0.27973127
-0.19712673,0.18987335,0.48632038,0.35943678,-0.77109265,-0.12656298,0.38810098,-0.47530437,-0.09563136,0.29045984,0.1955347,0.281188
-0.19048151,0.20003715,0.47787833,0.33011606,-0.7554017,-0.13991097,0.3847316,-0.48592567,-0.1132946,0.298487,0.18636891,0.2805674
-0.16854778,0.2020377,0.48202896,0.3080314,-0.73907995,-0.14881155,0.3847316,-0.48592567,-0.1132946,0.30602676,0.17752287,0.2815585
-0.15182522,0.20969333,0.4894328,0.28780124,-0.72421473,-0.15491278,0.36806875,-0.5080762,-0.09391701,0.31315243,0.16903166,0.28256392
-0.12764764,0.2205083,0.49628592,0.26149258,-0.70845973,-0.16151528,0.36806875,-0.5080762,-0.09391701,0.31970933,0.16085577,0.28332233
-0.11649163,0.23324437,0.48996985,0.22840968,-0.6915698,-0.17080407,0.353265,-0.5208544,-0.10394025,0.32558638,0.1530972,0.28353977
-0.108249225,0.2468429,0.47186863,0.19108371,-0.67128986,-0.18144508,0.353265,-0.5208544,-0.10394025,0.33066913,0.1457642,0.28403187
-0.09829817,0.25919783,0.43345523,0.1547917,-0.6466402,-0.19645071,0.33026218,-0.51983273,-0.07995975,0.33500695,0.13903716,0.28395724
-0.093735,0.2718343,0.38705826,0.12336534,-0.62009895,-0.21714452,0.33026218,-0.51983273,-0.07995975,0.33867478,0.13291408,0.28404546
-0.084420264,0.2878377,0.35329008,0.09044692,-0.5916668,-0.23851857,0.3233198,-0.5330694,-0.102232575,0.34166968,0.12750685,0.2836671
-0.06911133,0.29986885,0.326257,0.057944022,-0.56401324,-0.26203686,0.3233198,-0.5330694,-0.102232575,0.3439756,0.122744195,0.28326726
-0.05138973,0.30754638,0.30323875,0.025947534,-0.53916,-0.28127402,0.31149775,-0.53499025,-0.08608377,0.34563032,0.11861419,0.28272367
-0.046959057,0.31006375,0.28042865,0.0038376674,-0.51495695,-0.29812804,0.31149775,-0.53499025,-0.08608377,0.34681433,0.11502896,0.28198624
-0.050103474,0.30981877,0.24896634,-0.0032312684,-0.49385604,-0.30242163,0.29797274,-0.53804165,-0.11274302,0.34786564,0.11192627,0.28128386
-0.040655635,0.29894742,0.24447644,0.0036860332,-0.47865814,-0.29388538,0.29797274,-0.53804165,-0.11274302,0.34904838,0.10905777,0.28088474
-0.026711974,0.27980208,0.22154272,0.014491208,-0.4654377,-0.28344533,0.2933064,-0.5426171,-0.09617305,0.35046744,0.10643522,0.28095245
-0.019703802,0.26252592,0.18497813,0.022632204,-0.45424047,-0.27180687,0.2933064,-0.5426171,-0.09617305,0.35204148,0.10395027,0.2811389
-0.01190773,0.25027686,0.14132476,0.025333352,-0.44225585,-0.26160312,0.29408038,-0.54309016,-0.11319387,0.35368133,0.1016903,0.28100705
0.0015722141,0.24463093,0.08740103,0.020736076,-0.4296493,-0.25523597,0.29408038,-0.54309016,-0.11319387,0.35521156,0.09961682,0.28167892
0.003935665,0.2413262,0.04570651,0.01234597,-0.41231325,-0.24985829,0.2862873,-0.5452991,-0.105296135,0.35657626,0.097895704,0.28251338
0.014041334,0.24321382,0.03143072,-0.0011418685,-0.4011966,-0.25451112,0.2862873,-0.5452991,-0.105296135,0.3576485,0.09639153,0.2834108
0.027196132,0.25752395,-0.016979814,-0.017788552,-0.38619605,-0.25779074,0.2965684,-0.55031925,-0.09620273,0.3583851,0.09523796,0.28409076
0.041756295,0.27489942,-0.028373718,-0.03664845,-0.37139034,-0.26375407,0.2965684,-0.55031925,-0.09620273,0.35871816,0.09438284,0.28504467
0.04524398,0.29830652,-0.02861619,-0.055612355,-0.36160088,-0.26383686,0.2928015,-0.5528171,-0.096557856,0.3586677,0.09375425,0.28606105
0.03680113,0.30908716,0.011372209,-0.07004191,-0.35995984,-0.26628113,0.2928015,-0.5528171,-0.096557856,0.3583061,0.093143314,0.28705692
0.038778283,0.3113951,0.016607165,-0.07954963,-0.36939728,-0.27339733,0.2910987,-0.5539475,-0.13936591,0.35776109,0.092408895,0.28755236
0.04365591,0.30774483,0.022384763,-0.082970664,-0.3777649,-0.28814307,0.2910987,-0.5539475,-0.13936591,0.35713744,0.09155335,0.28800344
0.04931449,0.30623856,0.021279931,-0.08887081,-0.39260602,-0.3106219,0.27660453,-0.5564072,-0.14475,0.35641062,0.090539955,0.28817677
0.053896137,0.30345243,0.016001582,-0.09763065,-0.4104214,-0.3378195,0.27660453,-0.5564072,-0.14475,0.3554991,0.08928252,0.28745127
0.048807994,0.30295843,0.010044813,-0.1092909,-0.4291896,-0.36800176,0.28622872,-0.55051714,-0.10974383,0.35436904,0.087826476,0.28595662
0.04849816,0.29861844,-0.005428672,-0.12409037,-0.44735748,-0.39930186,0.28622872,-0.55051714,-0.10974383,0.35293245,0.086135626,0.28380442
0.057924353,0.29035246,-0.029510498,-0.13947564,-0.4605563,-0.43025357,0.27198696,-0.5478782,-0.11493468,0.35120273,0.08435467,0.2812345
0.050113812,0.30555296,0.034861088,-0.15713483,-0.48820907,-0.4451633,0.27198696,-0.5478782,-0.11493468,0.349106,0.08205995,0.27792573
0.029574893,0.2978156,0.08591735,-0.17189416,-0.545173,-0.44196558,0.26025414,-0.53888893,-0.16664302,0.34672797,0.07861012,0.27413177
0.0006763786,0.27054602,0.055169106,-0.17906207,-0.60256934,-0.4367296,0.26025414,-0.53888893,-0.16664302,0.34420434,0.073934086,0.27015185
-0.004797451,0.24010804,-0.0060874224,-0.18610598,-0.6276877,-0.43536562,0.25590706,-0.54103214,-0.15423322,0.34156185,0.068751305,0.26632404
0.0070614815,0.21026778,-0.051081777,-0.19475135,-0.62053835,-0.43459845,0.25590706,-0.54103214,-0.15423322,0.3387372,0.06367607,0.26229048
0.030708358,0.1842059,-0.04858446,-0.20784742,-0.5935848,-0.41071612,0.250602,-0.5211189,-0.17525578,0.33564293,0.059047777,0.258605
0.067941785,0.10582029,0.0022300482,-0.20369232,-0.5784903,-0.31544733,0.250602,-0.5211189,-0.17525578,0.3325675,0.054239254,0.25715828
-0.021490607,0.046190463,0.07922387,-0.18749082,-0.55791163,-0.30084458,0.2545948,-0.52407616,-0.1838851,0.32982656,0.0498015,0.2561164
-0.027019866,0.07362008,0.15974724,-0.2067479,-0.5309759,-0.38490608,0.2545948,-0.52407616,-0.1838851,0.32673162,0.046275683,0.25372505
0.041243955,0.15675913,0.1795212,-0.2557625,-0.52311295,-0.418781,0.23862648,-0.50679004,-0.2142967,0.3226555,0.04307916,0.2506454
0.082339555,0.21454586,0.14584112,-0.3105721,-0.53433204,-0.39159968,0.23862648,-0.50679004,-0.2142967,0.31741863,0.0394928,0.24814796
0.077549204,0.2372298,0.14070773,-0.36074388,-0.5479075,-0.35737985,0.23977977,-0.4996119,-0.2310319,0.31112736,0.03548646,0.24623156
0.071885765,0.23693468,0.1830771,-0.38577154,-0.56889796,-0.34588724,0.23977977,-0.4996119,-0.2310319,0.3043065,0.030963667,0.24445558
0.05899012,0.24133787,0.18820143,-0.39056265,-0.5850173,-0.35277128,0.23557788,-0.4856239,-0.28204167,0.29740858,0.02614592,0.24234986
0.04418186,0.26458907,0.18123078,-0.38247675,-0.58843946,-0.36016804,0.23557788,-0.4856239,-0.28204167,0.29068154,0.021248735,0.24027944
0.017402843,0.2881189,0.18632627,-0.35548595,-0.58063376,-0.36487693,0.20804816,-0.47304654,-0.30490732,0.28452983,0.016537473,0.23838925
0.0001927279,0.320526,0.17038989,-0.31244993,-0.56248224,-0.36786193,0.20804816,-0.47304654,-0.30490732,0.27926323,0.012180053,0.23640084
0.009062462,0.35558632,0.119748235,-0.25686312,-0.5357848,-0.3653954,0.2049787,-0.4654609,-0.30913365,0.2751525,0.008380622,0.23470306
0.006504655,0.37636793,0.062298775,-0.199487,-0.5044532,-0.3597515,0.2049787,-0.4654609,-0.30913365,0.2722082,0.0051845536,0.23322463
0.010064051,0.38216808,0.01748228,-0.15311381,-0.46627206,-0.35535344,0.21340352,-0.45049828,-0.3165524,0.27022207,0.0027896762,0.23164177
0.010103434,0.37700212,0.009246588,-0.11830451,-0.4292177,-0.35246554,0.21340352,-0.45049828,-0.3165524,0.26893222,0.0011292249,0.23070312
-0.012777552,0.36889958,0.01303637,-0.08948219,-0.39870542,-0.34870666,0.20969522,-0.4477771,-0.31245816,0.2682399,0.0001142025,0.22995162
-0.036367662,0.35922986,0.06262243,-0.06838518,-0.38026336,-0.34343505,0.20969522,-0.4477771,-0.31245816,0.2679595,-0.0005581081,0.2294364
-0.032421615,0.33592302,0.105908394,-0.040133897,-0.36149642,-0.34319904,0.20862001,-0.4655128,-0.30887592,0.2682745,-0.00081954896,0.229532
-0.015883557,0.3170585,0.17108881,0.005552847,-0.3175493,-0.345136,0.20862001,-0.4655128,-0.30887592,0.26951057,-0.00017933547,0.22929859
0.029468775,0.2982048,0.30747604,0.067419246,-0.25884917,-0.33641884,0.20580149,-0.45282662,-0.312909,0.27201533,0.0016806573,0.22913289
0.053623617,0.28318152,0.43135512,0.12431079,-0.21736711,-0.32390046,0.20580149,-0.45282662,-0.312909,0.27565622,0.004332371,0.22983336
0.047997244,0.2703117,0.5028628,0.15902802,-0.20016436,-0.316176,0.20784461,-0.46503967,-0.29185188,0.28001875,0.0073344186,0.23092127
0.038941167,0.26700678,0.5617076,0.16713952,-0.20577215,-0.3225129,0.20784461,-0.46503967,-0.29185188,0.2845437,0.010215081,0.23174524
0.033607975,0.28150815,0.5991206,0.15409705,-0.2314678,-0.33923283,0.21845764,-0.47551596,-0.2957164,0.28884134,0.0126469955,0.23198819
0.070207015,0.33363175,0.611222,0.1220326,-0.2765031,-0.3526786,0.21845764,-0.47551596,-0.2957164,0.29248762,0.0141711235,0.23186564
0.12944357,0.41617656,0.60377955,0.0875497,-0.3300559,-0.3569598,0.21801132,-0.48049897,-0.29165363,0.29545647,0.0146291405,0.23130131
0.153613,0.46862808,0.6141536,0.07043243,-0.38013104,-0.34940156,0.21801132,-0.48049897,-0.29165363,0.2980624,0.013999827,0.23064446
0.16678663,0.48786783,0.647771,0.07743919,-0.41733253,-0.3409481,0.21711177,-0.48257655,-0.27472532,0.30083567,0.012593843,0.2298603
0.10876644,0.45897254,0.72496855,0.09461397,-0.43715775,-0.34063125,0.21711177,-0.48257655,-0.27472532,0.30395573,0.010756649,0.22901869
0.06819327,0.4078586,0.75558174,0.109798685,-0.4507608,-0.3578034,0.20983887,-0.49036103,-0.2840433,0.30743638,0.008736253,0.22775435
0.11711739,0.36058602,0.7050425,0.11777237,-0.44318107,-0.41819948,0.20983887,-0.49036103,-0.2840433,0.31113458,0.0071087703,0.22537494
0.1221094,0.3690706,0.6924883,0.116180435,-0.43413103,-0.45810908,0.20836622,-0.4999714,-0.26314795,0.31486535,0.0058695376,0.22251105
0.16148151,0.37761638,0.68032086,0.11502454,-0.4232843,-0.46312594,0.20836622,-0.4999714,-0.26314795,0.31855732,0.004866421,0.2193873
0.1349873,0.3919883,0.6849874,0.104132146,-0.41839984,-0.44289166,0.20720446,-0.4992622,-0.23761332,0.32201737,0.0039075315,0.21668243
0.097127885,0.3830544,0.72820747,0.10024801,-0.4161384,-0.42525613,0.20720446,-0.4992622,-0.23761332,0.32535714,0.002903521,0.21431518
0.05688922,0.36812794,0.71396315,0.10523483,-0.42102936,-0.41750777,0.20995325,-0.5092791,-0.22922671,0.32881385,0.00179407,0.21216774
0.07731669,0.35334963,0.64680994,0.12587863,-0.42240524,-0.41935807,0.20995325,-0.5092791,-0.22922671,0.33268505,0.0006529093,0.20985723
0.09213941,0.3340604,0.5898427,0.15074493,-0.4288898,-0.41252947,0.22080892,-0.50676656,-0.22410035,0.33708733,-0.00061746687,0.2071588
0.083961055,0.31670386,0.50398684,0.17168863,-0.43464172,-0.39843082,0.22080892,-0.50676656,-0.22410035,0.34189355,-0.0020869747,0.20513988
0.08852774,0.27692217,0.4348091,0.18490551,-0.43984577,-0.38753602,0.20912063,-0.5140259,-0.21665192,0.3469835,-0.0036834031,0.20331264
0.09945145,0.2603349,0.3571452,0.18186168,-0.45015723,-0.37838513,0.20912063,-0.5140259,-0.21665192,0.35198826,-0.00554654,0.20153117
0.07513909,0.2565198,0.294958,0.17612754,-0.46139288,-0.3777781,0.20426881,-0.52637124,-0.20462203,0.35689977,-0.0076094717,0.19979548
0.07530318,0.26783544,0.25258386,0.1727097,-0.45583808,-0.36350846,0.20426881,-0.52637124,-0.20462203,0.36170387,-0.009646229,0.19822001
0.0532118,0.26171434,0.19277394,0.17064476,-0.43928084,-0.36645335,0.1969276,-0.5314874,-0.2095865,0.36647886,-0.011302844,0.19660878
0.06543588,0.29754364,0.1588459,0.17349137,-0.40606722,-0.35729292,0.1969276,-0.5314874,-0.2095865,0.371266,-0.012356043,0.19552517
0.01930622,0.32172376,0.16626596,0.18288594,-0.36098522,-0.34428918,0.18829912,-0.5384432,-0.1891123,0.3762202,-0.012549654,0.19513798
-0.014075723,0.3414273,0.16805458,0.18788639,-0.30084267,-0.32168552,0.18829912,-0.5384432,-0.1891123,0.38119334,-0.011685967,0.1955905
-0.019016791,0.34023073,0.24199653,0.19072106,-0.24841794,-0.30893975,0.20906073,-0.54860306,-0.17517984,0.3861912,-0.009826824,0.19649434
0.0053727627,0.35585204,0.287562,0.19569145,-0.20089875,-0.29549396,0.20906073,-0.54860306,-0.17517984,0.39122918,-0.007130198,0.1983192
-0.0012459569,0.36643672,0.326607,0.19841483,-0.16038786,-0.28960323,0.20083803,-0.5715716,-0.18081653,0.39630923,-0.0036520585,0.2008915
-0.062849976,0.3751599,0.3577963,0.17501552,-0.12626208,-0.28566825,0.20083803,-0.5715716,-0.18081653,0.40086475,0.00044503808,0.20361114
0.010141596,0.34569538,0.29258752,0.14658068,-0.086732626,-0.30199203,0.23869199,-0.5681745,-0.12680757,0.40484655,0.005438432,0.20594859
0.05510521,0.38379318,0.37530756,0.12154931,-0.035753846,-0.32520333,0.23869199,-0.5681745,-0.12680757,0.40829775,0.0115446225,0.20883036
-0.0013546236,0.40814006,0.4338293,0.09173858,-0.03444323,-0.3568843,0.2404046,-0.5749324,-0.0927906,0.41118738,0.017888196,0.21134996
-0.005524084,0.44245327,0.42621195,0.071722984,-0.025782377,-0.37834468,0.2404046,-0.5749324,-0.0927906,0.41366997,0.024508588,0.21340752
-0.060089298,0.4271025,0.46401513,0.06707397,-0.0073978007,-0.40815657,0.26041162,-0.57103676,-0.12535417,0.41609654,0.031703122,0.2145176
-0.033125766,0.4376409,0.5938182,0.07999003,-0.011044949,-0.4581231,0.26041162,-0.57103676,-0.12535417,0.41882586,0.03911464,0.21531463
0.010217324,0.47581196,0.6942977,0.09834984,-0.04608816,-0.51075333,0.28103805,-0.57585907,-0.102716446,0.42200768,0.0462033,0.21475029
0.06669309,0.51645654,0.7928647,0.11494255,-0.097005665,-0.5369401,0.28103805,-0.57585907,-0.102716446,0.42555273,0.052443948,0.21335316
0.090191916,0.5481834,0.81647336,0.13493969,-0.16071275,-0.5359471,0.28523993,-0.589847,-0.051705003,0.42954412,0.05745953,0.21201229
0.0965087,0.55608886,0.8067769,0.1543624,-0.22628282,-0.50176454,0.28523993,-0.589847,-0.051705003,0.43391848,0.060957246,0.21003318
0.09810175,0.52589655,0.77648866,0.17510854,-0.2955947,-0.4605183,0.28829968,-0.58954436,-0.038679242,0.43873337,0.06286013,0.20810938
0.08245358,0.4865921,0.67903244,0.18918589,-0.35456094,-0.42701983,0.28829968,-0.58954436,-0.038679242,0.44382414,0.06337672,0.20620227
0.05442889,0.44486758,0.5754595,0.19001651,-0.39675632,-0.40651548,0.2838258,-0.59423834,-0.026362062,0.44894838,0.06296733,0.2042439
0.027957521,0.40835524,0.43616557,0.1780401,-0.42016366,-0.39363915,0.2838258,-0.59423834,-0.026362062,0.4538112,0.06200445,0.20224571
0.004093919,0.38484424,0.31797242,0.15181567,-0.423512,-0.3794832,0.28044528,-0.59697425,-0.035229206,0.4581374,0.060908753,0.20025706
-0.012563013,0.37335995,0.23612261,0.11919531,-0.4144213,-0.36297345,0.28044528,-0.59697425,-0.035229206,0.461762,0.05985178,0.19885135
-0.02687145,0.35833845,0.19202292,0.088187605,-0.40009186,-0.34586433,0.28592616,-0.60123235,-0.0008571744,0.46474174,0.05897023,0.19794846
-0.040186327,0.35262036,0.15772212,0.06015405,-0.38642502,-0.33025107,0.28592616,-0.60123235,-0.0008571744,0.4671133,0.05821516,0.19741797
-0.0550505,0.34911883,0.1386286,0.03797248,-0.3715485,-0.31724542,0.27832407,-0.60356075,0.0027861,0.46902353,0.057670545,0.19732046
-0.055318885,0.35131618,0.1464262,0.026315033,-0.3632148,-0.3066681,0.27832407,-0.60356075,0.0027861,0.47067052,0.057183664,0.19745827
-0.06345895,0.35430336,0.15410388,0.018722303,-0.35843253,-0.3020933,0.2865746,-0.6042562,-0.017977178,0.47216618,0.05677832,0.19737506
-0.07528397,0.36217836,0.15595019,0.015133582,-0.35913026,-0.29461628,0.2865746,-0.6042562,-0.017977178,0.47357225,0.056277942,0.19776797
-0.07356523,0.36744255,0.14740062,0.0111256465,-0.36367625,-0.28660518,0.2815205,-0.6085956,0.0071082115,0.47490275,0.055652857,0.19840455
-0.08690502,0.37285742,0.11910558,0.0048339106,-0.37387022,-0.28514978,0.2815205,-0.6085956,0.0071082115,0.47609475,0.054800045,0.19879532
-0.11937958,0.34894988,0.06551671,0.0040570833,-0.3863821,-0.2946873,0.27768534,-0.6084252,0.011105001,0.47729132,0.053806603,0.19885755
-0.11415529,0.36043182,0.01808238,0.008921403,-0.39765242,-0.31232572,0.27768534,-0.6084252,0.011105001,0.47859454,0.0527094,0.19849992
-0.1096168,0.35743043,-0.026531696,0.014094017,-0.4061669,-0.31669223,0.27589327,-0.62046874,0.03616059,0.48002183,0.051508278,0.19833517
-0.11020317,0.35562813,-0.039287448,0.018336691,-0.41798607,-0.3148935,0.27589327,-0.62046874,0.03616059,0.4815315,0.050047524,0.19769573
-0.1123973,0.3405287,-0.063610435,0.027047038,-0.43011582,-0.31393683,0.2708392,-0.6186409,-0.08784258,0.48323545,0.04838392,0.19592452
-0.12781587,0.31986955,-0.13364649,0.02982308,-0.43621218,-0.3229161,0.2708392,-0.6186409,-0.08784258,0.48499882,0.04664383,0.19492769
-0.12549981,0.3211135,-0.195984,0.019067578,-0.43179977,-0.34084874,0.2689314,-0.6179327,0.03148341,0.48656014,0.045150816,0.19446969
-0.14422654,0.337242,-0.18475413,0.0033964068,-0.42688674,-0.35647923,0.2689314,-0.6179327,0.03148341,0.4877963,0.043851316,0.19298863
-0.15885684,0.36680004,-0.17402172,-0.013593875,-0.4177415,-0.36851004,0.2734136,-0.621126,0.010366797,0.48869345,0.04284925,0.19129562
-0.18146847,0.43310547,-0.24280322,-0.03338615,-0.40304726,-0.35589132,0.2734136,-0.621126,0.010366797,0.4891557,0.04199621,0.190099
-0.11184764,0.47982147,-0.18663228,-0.05067465,-0.38447893,-0.33269435,0.25839514,-0.618013,0.02219677,0.48924273,0.041339405,0.18980455
-0.009818744,0.5584811,-0.08529961,-0.047483873,-0.37190956,-0.31833395,0.25839514,-0.618013,0.02219677,0.48936972,0.040777765,0.18962383
0.05370664,0.6095713,-0.0043361187,-0.02746826,-0.36840805,-0.32916954,0.26503766,-0.62298125,0.031032562,0.4899294,0.040396243,0.18943691
0.077223346,0.64847875,0.070423245,-0.0109868385,-0.35622835,-0.35633686,0.26503766,-0.62298125,0.031032562,0.49083492,0.040428005,0.18877816
0.06733608,0.7066583,0.12593293,-0.0015312172,-0.33754775,-0.3952452,0.2734722,-0.61590695,0.014814377,0.49196768,0.041151203,0.186975
0.007813275,0.72540027,0.25252044,0.0011884272,-0.31206954,-0.40540278,0.2734722,-0.61590695,0.014814377,0.49313956,0.042400315,0.18598437
-0.011031464,0.71830356,0.5011512,0.03172332,-0.3069536,-0.40610182,0.2768528,-0.61317205,0.023681581,0.49495593,0.043783575,0.1848023
-0.03599997,0.7143744,0.576167,0.07680671,-0.31337264,-0.3932076,0.2768528,-0.61317205,0.023681581,0.49768817,0.044915184,0.18401432
-0.12080368,0.6849054,0.45244765,0.09360354,-0.31316248,-0.36181614,0.2650962,-0.6177622,0.03548187,0.5007614,0.0458301,0.1840806
-0.14394149,0.66592425,0.5420983,0.1061928,-0.30145958,-0.32916158,0.2650962,-0.6177622,0.03548187,0.5040529,0.046670876,0.18454981
-0.17297274,0.6569897,0.41334033,0.11306827,-0.28528976,-0.2945822,0.2557606,-0.6269142,0.06862682,0.50747204,0.047556706,0.18651009
-0.16225031,0.6297145,0.34637427,0.081978574,-0.26120576,-0.24196154,0.2557606,-0.6269142,0.06862682,0.5101837,0.04842464,0.1889739
-0.10796857,0.5989164,0.38166785,0.054798618,-0.25642252,-0.19712587,0.26259702,-0.632001,0.07320821,0.5123155,0.04903929,0.19205356
-0.01898142,0.43700328,0.24828136,0.048263565,-0.26036942,-0.18252277,0.26259702,-0.632001,0.07320821,0.5142896,0.049417615,0.19554877
0.030054048,0.35857037,0.18217194,0.07163167,-0.25730306,-0.19841821,0.26483256,-0.6443325,0.09000945,0.5167736,0.050008796,0.19897413
0.003091,0.35637525,0.08451247,0.07933681,-0.25993934,-0.20431785,0.26483256,-0.6443325,0.09000945,0.51940864,0.050559342,0.20210624
0.016298905,0.32337397,0.035874248,0.062349334,-0.24810737,-0.20934299,0.27901018,-0.64430416,0.099553704,0.52170277,0.051397577,0.20472145
0.072431535,0.34026203,0.057093263,0.051734447,-0.23774621,-0.21836838,0.27901018,-0.64430416,0.099553704,0.5237661,0.052458376,0.20789838
0.0953863,0.36418748,0.07934284,0.02216275,-0.23323438,-0.21611235,0.260427,-0.65169585,0.09797484,0.52522683,0.053607162,0.2113719
0.10429783,0.39489934,0.15657008,-0.00917941,-0.23708738,-0.21114933,0.260427,-0.65169585,0.09797484,0.5260246,0.054608393,0.21468353
0.09106903,0.40983993,0.21121943,-0.0334812,-0.24969366,-0.20542422,0.28974873,-0.6522306,0.09578484,0.5263326,0.055362996,0.21718788
0.048284948,0.43145162,0.1975956,-0.053375993,-0.26203457,-0.19995832,0.28974873,-0.6522306,0.09578484,0.52621984,0.055809774,0.22037268
0.045138955,0.4307256,0.2498697,-0.078152284,-0.27135503,-0.19374308,0.2671365,-0.65933335,0.102458775,0.52560544,0.0560616,0.223979
0.027520671,0.45337597,0.23982811,-0.08409893,-0.28801444,-0.2057102,0.2671365,-0.65933335,0.102458775,0.5248703,0.056085154,0.22673678
0.003732428,0.48785305,0.25488126,-0.10110396,-0.29705444,-0.22185627,0.27064252,-0.6540477,0.111420035,0.52380586,0.056113463,0.22896528
-0.016522918,0.5265186,0.3069508,-0.11095995,-0.31455746,-0.24367681,0.27064252,-0.6540477,0.111420035,0.5225463,0.055978242,0.23074484
-0.031350505,0.559498,0.30930686,-0.11808883,-0.33618867,-0.26175663,0.27115577,-0.65173304,0.10300541,0.5211688,0.05563219,0.23174429
-0.015716664,0.5742933,0.3788699,-0.115747705,-0.36437726,-0.27795875,0.27115577,-0.65173304,0.10300541,0.51985073,0.05487537,0.23231769
0.007099524,0.57361156,0.32349098,-0.09508355,-0.3993675,-0.29680702,0.26388288,-0.6595175,0.093689024,0.51899934,0.053662643,0.23234248
0.013007291,0.58018184,0.30599785,-0.08476968,-0.4166373,-0.31046456,0.26388288,-0.6595175,0.093689024,0.51836693,0.052217916,0.23171258
-0.010665838,0.58528227,0.29860544,-0.09381132,-0.42147928,-0.3153193,0.24951285,-0.6594274,0.08839917,0.51756406,0.050752766,0.23116446
-0.01463243,0.5779901,0.29716444,-0.11493091,-0.41615096,-0.31421232,0.24951285,-0.6594274,0.08839917,0.51630855,0.049347147,0.23048043
-0.00871129,0.5694731,0.26766884,-0.14473659,-0.40650058,-0.30654454,0.25685406,-0.65431213,0.0933637,0.5144363,0.048085257,0.22992826
0.0063367896,0.55253875,0.2669593,-0.17360131,-0.4048091,-0.29785192,0.25685406,-0.65431213,0.0933637,0.51194686,0.0467508,0.22967124
-0.009434398,0.539144,0.25517392,-0.19534667,-0.40768942,-0.29835096,0.25072473,-0.64703023,0.076111615,0.50901914,0.04539743,0.22921038
-0.0015377998,0.5031748,0.25112712,-0.2041827,-0.409277,-0.30074713,0.25072473,-0.64703023,0.076111615,0.50589883,0.044002175,0.22886086
0.0011366978,0.47557104,0.23455596,-0.206634,-0.40858302,-0.30537194,0.26613098,-0.6503793,0.055769444,0.50274193,0.04268785,0.2281897
-0.0031704828,0.4652045,0.21855438,-0.19724093,-0.3975025,-0.31898522,0.26613098,-0.6503793,0.055769444,0.49977303,0.04165685,0.2276802
0.022342816,0.4519839,0.19645607,-0.19167803,-0.38404432,-0.32797718,0.23886216,-0.64058965,0.024295926,0.4969309,0.040977553,0.22721577
0.037470512,0.44514495,0.19098556,-0.18889321,-0.3680882,-0.3455331,0.23886216,-0.64058965,0.024295926,0.49414015,0.040705122,0.22660398
0.020344019,0.45876366,0.1870271,-0.1875954,-0.35253778,-0.36418712,0.23847443,-0.6403526,0.032808065,0.49139395,0.040897965,0.22616935
-0.004566986,0.47357076,0.19878948,-0.19356315,-0.33812124,-0.36549318,0.23847443,-0.6403526,0.032808065,0.48850593,0.041341476,0.22556329
-0.039256945,0.48693755,0.20736146,-0.19545086,-0.32582098,-0.36731195,0.24613506,-0.63280517,0.03361231,0.485585,0.042059317,0.22500515
-0.09651877,0.5125646,0.16756833,-0.19277455,-0.31522658,-0.3759361,0.24613506,-0.63280517,0.03361231,0.48270956,0.043011628,0.22447634
-0.21001083,0.5776632,0.11439729,-0.1823406,-0.29670292,-0.39164904,0.24631917,-0.6250354,0.038157344,0.48006523,0.044464387,0.22394776
-0.28284597,0.64226,0.18147004,-0.18732724,-0.27649558,-0.40375724,0.24631917,-0.6250354,0.038157344,0.47730425,0.046359114,0.22336411
-0.26148742,0.6061433,0.26082373,-0.21430553,-0.2597711,-0.40035123,0.27034557,-0.61354136,0.0061404705,0.47398484,0.048583418,0.22198844
-0.17253152,0.52648073,0.2356497,-0.22277687,-0.25400716,-0.3905433,0.27034557,-0.61354136,0.0061404705,0.47046876,0.0508022,0.22187018
-0.08424644,0.46650055,0.1898886,-0.21527414,-0.25784084,-0.38928473,0.25187808,-0.61049396,0.013456821,0.46712393,0.05296933,0.22243524
-0.04024309,0.44627175,0.23074234,-0.2123108,-0.26978832,-0.39314649,0.25187808,-0.61049396,0.013456821,0.4638334,0.054905057,0.22207522
-0.020398956,0.44933102,0.32787538,-0.21936312,-0.28457066,-0.40107158,0.25731146,-0.59850234,-0.011339545,0.46041957,0.056652524,0.22096705
0.03388936,0.44345775,0.4257809,-0.2195872,-0.30253768,-0.4133145,0.25731146,-0.59850234,-0.011339545,0.45700163,0.058103755,0.21987653
0.05334527,0.42613748,0.44098604,-0.21208112,-0.31749833,-0.4230259,0.2750705,-0.6037459,-0.005983591,0.45376304,0.059367027,0.2186594
0.05994138,0.4205154,0.4261589,-0.20305443,-0.32098678,-0.43254176,0.2750705,-0.6037459,-0.005983591,0.4507043,0.0605922,0.21701813
0.06717516,0.43330818,0.4111557,-0.20479183,-0.3218663,-0.4325618,0.26958126,-0.5915985,-0.03155613,0.4476211,0.06183041,0.21515346
0.07012813,0.42907706,0.3854109,-0.22012968,-0.32316837,-0.42073482,0.26958126,-0.5915985,-0.03155613,0.44420013,0.062919356,0.21368861
0.055951938,0.41165105,0.3494315,-0.24308042,-0.3209554,-0.409183,0.27998084,-0.58618057,-0.013565838,0.44030756,0.063997775,0.21261644
0.044019833,0.39285463,0.31760108,-0.26528722,-0.3148919,-0.4093951,0.27998084,-0.58618057,-0.013565838,0.43593907,0.065157175,0.2114265
0.031932138,0.3830038,0.28916574,-0.28128034,-0.30401376,-0.41067058,0.2763605,-0.57254726,-0.0773437,0.43124652,0.0665672,0.20971727
0.012085088,0.38341635,0.26233578,-0.29459804,-0.29081443,-0.41745108,0.2763605,-0.57254726,-0.0773437,0.4262653,0.06823774,0.20860434
-0.01566841,0.3955239,0.24495041,-0.30127108,-0.27350625,-0.42403767,0.28272265,-0.55895203,-0.04229951,0.42115557,0.07031549,0.20772457
-0.055056334,0.42104134,0.25498104,-0.30626726,-0.2546183,-0.4333567,0.28272265,-0.55895203,-0.04229951,0.4159285,0.07278636,0.20664501
-0.08501428,0.45802492,0.28010345,-0.30678114,-0.24157888,-0.44422543,0.2988277,-0.5522186,-0.06651294,0.4107034,0.07561074,0.20526004
-0.083971985,0.4860012,0.2715932,-0.28987694,-0.241492,-0.4566282,0.2988277,-0.5522186,-0.06651294,0.40582073,0.07847362,0.20384002
-0.084932484,0.477416,0.29927886,-0.28030217,-0.24220657,-0.45071805,0.31102914,-0.54264545,-0.082376,0.4011456,0.08131321,0.20226002
-0.06899209,0.46082294,0.288275,-0.26631927,-0.24188522,-0.43601593,0.31102914,-0.54264545,-0.082376,0.3967412,0.08402854,0.20117426
-0.050686434,0.45631644,0.29406548,-0.24215701,-0.23625809,-0.4236227,0.31166923,-0.53778106,-0.090696454,0.3928464,0.08680888,0.20056486
-0.023168627,0.46682492,0.33637333,-0.2160041,-0.235484,-0.4141409,0.31166923,-0.53778106,-0.090696454,0.3894767,0.089513004,0.19990516
0.004978575,0.47120634,0.38676262,-0.18541916,-0.2454555,-0.4069174,0.3266111,-0.53033745,-0.08937526,0.3867547,0.0920082,0.19907475
0.012295127,0.4707436,0.41584623,-0.15330335,-0.25665802,-0.39794898,0.3266111,-0.53033745,-0.08937526,0.38468382,0.09419199,0.19850898
0.011301562,0.4721992,0.4276961,-0.122448765,-0.267738,-0.38704747,0.33095956,-0.5281932,-0.10178828,0.38326675,0.09612365,0.19794941
-0.011924986,0.4738148,0.45738626,-0.0985606,-0.27561277,-0.3738399,0.33095956,-0.5281932,-0.10178828,0.38232845,0.0977886,0.19765735
-0.019493759,0.4702447,0.4708532,-0.08361024,-0.27957025,-0.35447097,0.33063036,-0.5227381,-0.08882856,0.38171297,0.0992955,0.19768381
-0.0226761,0.45384908,0.49311757,-0.07692318,-0.28430176,-0.3359227,0.33063036,-0.5227381,-0.08882856,0.38121802,0.100569874,0.19801402
-0.016886603,0.4181316,0.50746024,-0.071732074,-0.2868547,-0.3215629,0.33792144,-0.5307302,-0.097111106,0.3808454,0.10174246,0.19870901
-0.02123839,0.3850631,0.523312,-0.06940588,-0.29149035,-0.3159381,0.33792144,-0.5307302,-0.097111106,0.38050473,0.10275957,0.19934607
-0.027340883,0.3591866,0.53373015,-0.075093344,-0.29645863,-0.31658426,0.32992327,-0.5249333,-0.07615626,0.38006276,0.10371162,0.20008945
-0.03579163,0.33543277,0.55588627,-0.086622305,-0.30427715,-0.32377213,0.32992327,-0.5249333,-0.07615626,0.3793669,0.104518,0.20047283
-0.04081779,0.31280643,0.55341685,-0.10335508,-0.31564313,-0.334216,0.32622337,-0.5301004,-0.08086312,0.37834114,0.105185345,0.20091343
-0.045185983,0.3000684,0.5361695,-0.120480746,-0.3257989,-0.34571528,0.32622337,-0.5301004,-0.08086312,0.37694573,0.10568512,0.20070863
-0.05001875,0.2849214,0.51771677,-0.13935147,-0.3333455,-0.35779226,0.32815075,-0.5233954,-0.114620805,0.3751737,0.106133945,0.1998105
-0.054591764,0.28068,0.48816013,-0.15899734,-0.339994,-0.3707941,0.32815075,-0.5233954,-0.114620805,0.37298134,0.10648753,0.19902158
-0.06346077,0.29030147,0.44501126,-0.17571405,-0.34599674,-0.38498604,0.3407399,-0.5140583,-0.13899767,0.3704557,0.10683136,0.19721746
-0.08295557,0.2992277,0.40849268,-0.1916827,-0.3487651,-0.39708978,0.3407399,-0.5140583,-0.13899767,0.36758694,0.10714763,0.19586706
-0.08192104,0.30852166,0.38760686,-0.20731577,-0.34804425,-0.40362793,0.32130605,-0.51042026,-0.1104027,0.36440828,0.10753546,0.19523907
-0.07603564,0.30834448,0.3602389,-0.20854376,-0.34606352,-0.40559703,0.32130605,-0.51042026,-0.1104027,0.3611894,0.107942246,0.19374847
-0.06875762,0.31248277,0.3568704,-0.20545289,-0.3448782,-0.40448588,0.3371488,-0.500899,-0.12600827,0.35804647,0.108395055,0.19189024
-0.050088767,0.31561905,0.34488285,-0.19488169,-0.34776405,-0.4017407,0.3371488,-0.500899,-0.12600827,0.35511035,0.10873719,0.19045496
-0.050029084,0.32117736,0.3338238,-0.18148032,-0.34723455,-0.39996362,0.32999164,-0.49824446,-0.12642765,0.3524654,0.109105475,0.1893959
