ax, ay, az, gx, gy, gz, mx, my, mz, phi, theta, psi
0.078027,1.317835,9.582612,0.300465,-0.252782,-0.041205,0.587092,-0.507289,-0.766482,0.126038849,-0.012600759,2.08610666
0.144939,1.294431,9.553216,0.3126,-0.261841,-0.03235,0.587092,-0.507289,-0.766482,0.127599523,-0.013864727,2.085805259
0.187477,1.305671,9.57119,0.326238,-0.263992,-0.031489,0.584706,-0.512829,-0.77452,0.129208421,-0.015121452,2.085525308
0.17609,1.308793,9.582879,0.338455,-0.266357,-0.026198,0.584706,-0.512829,-0.77452,0.130898773,-0.016410814,2.085247399
0.153515,1.342125,9.615004,0.344187,-0.262367,-0.024519,0.585355,-0.510699,-0.784815,0.13259848,-0.0176637,2.084976611
0.194846,1.324362,9.596228,0.347679,-0.260329,-0.019463,0.585355,-0.510699,-0.784815,0.134335048,-0.01892669,2.084731671
0.191259,1.350902,9.623226,0.34996,-0.251252,-0.021029,0.586359,-0.520122,-0.761598,0.136063134,-0.020125348,2.084504971
0.19871,1.360907,9.634534,0.354422,-0.249141,-0.021572,0.586359,-0.520122,-0.761598,0.137834156,-0.021330638,2.084252823
0.210018,1.341172,9.64158,0.353856,-0.23836,-0.023841,0.586129,-0.522616,-0.759068,0.139582767,-0.022462833,2.084010798
0.206741,1.337773,9.681134,0.34394,-0.231441,-0.02396,0.586129,-0.522616,-0.759068,0.141302056,-0.023577942,2.083755002
0.233485,1.297354,9.698184,0.332782,-0.222869,-0.017595,0.584113,-0.525784,-0.772224,0.142945145,-0.024637183,2.08354558
0.286752,1.262315,9.725278,0.314449,-0.212318,-0.022855,0.584113,-0.525784,-0.772224,0.144517129,-0.02565759,2.083305283
0.319165,1.285833,9.798408,0.307423,-0.183491,-0.03947,0.576519,-0.517778,-0.772521,0.146036561,-0.026505978,2.082997075
0.298478,1.315874,9.881411,0.282736,-0.170734,-0.046753,0.576519,-0.517778,-0.772521,0.147452826,-0.027302494,2.082665864
0.274697,1.378519,9.928527,0.248877,-0.163377,-0.057184,0.577544,-0.521364,-0.793284,0.148682149,-0.028037609,2.082280705
0.323705,1.361364,9.916549,0.213767,-0.16221,-0.061125,0.577544,-0.521364,-0.793284,0.149755964,-0.028780457,2.081882752
0.355161,1.355022,9.942283,0.191965,-0.16992,-0.067659,0.580563,-0.527618,-0.756911,0.150702177,-0.029538681,2.08146375
0.332883,1.393263,9.93735,0.177509,-0.176874,-0.069263,0.580563,-0.527618,-0.756911,0.151596885,-0.030347117,2.081013071
0.341379,1.430506,9.882259,0.166342,-0.186175,-0.075103,0.570681,-0.530626,-0.770539,0.152416964,-0.031179099,2.080551641
0.320581,1.496887,9.858685,0.15298,-0.200671,-0.073787,0.570681,-0.530626,-0.770539,0.153191122,-0.032100947,2.080059109
0.328046,1.467137,9.793637,0.137247,-0.204386,-0.069118,0.584301,-0.528642,-0.777459,0.153867315,-0.033027735,2.07957827
0.38487,1.455073,9.773866,0.121369,-0.212799,-0.060801,0.584301,-0.528642,-0.777459,0.154482544,-0.034018803,2.079139337
0.397661,1.428593,9.688948,0.107496,-0.216521,-0.050325,0.565437,-0.53052,-0.770853,0.155006911,-0.03501858,2.078774843
0.379925,1.353914,9.66186,0.100914,-0.207322,-0.046581,0.565437,-0.53052,-0.770853,0.155518136,-0.035993103,2.078409318
0.410593,1.333477,9.619841,0.090138,-0.204257,-0.041886,0.575884,-0.536085,-0.77293,0.155955027,-0.036938845,2.078084146
0.331762,1.359061,9.641237,0.077414,-0.20471,-0.054133,0.575884,-0.536085,-0.77293,0.156350798,-0.037894256,2.077682441
0.339613,1.350399,9.592422,0.055146,-0.206826,-0.064085,0.557801,-0.527866,-0.773854,0.156617641,-0.038835146,2.077245654
0.311993,1.369412,9.586643,0.031739,-0.208759,-0.076224,0.557801,-0.527866,-0.773854,0.15679022,-0.039793105,2.076731061
0.259492,1.388489,9.545799,0.015903,-0.212362,-0.073191,0.565116,-0.535629,-0.768382,0.156863541,-0.040753944,2.076250328
0.295656,1.372267,9.48773,0.010085,-0.214465,-0.077291,0.565116,-0.535629,-0.768382,0.156929253,-0.041739148,2.075725786
0.287596,1.395828,9.456375,0.009251,-0.20382,-0.088835,0.57096,-0.530869,-0.775715,0.156974108,-0.042646214,2.075149496
0.23804,1.44085,9.489404,0.009064,-0.194448,-0.095906,0.57096,-0.530869,-0.775715,0.157038964,-0.043517936,2.074548439
0.180932,1.525548,9.45106,0.005794,-0.190293,-0.087913,0.56075,-0.530898,-0.78152,0.157066435,-0.044358504,2.074001068
0.213063,1.52332,9.432041,-0.006245,-0.190038,-0.082349,0.56075,-0.530898,-0.78152,0.15705263,-0.045219004,2.073470401
0.204776,1.51871,9.384392,-0.012854,-0.185712,-0.076914,0.566086,-0.52839,-0.781147,0.156985592,-0.046045872,2.072969142
0.195916,1.513925,9.329958,-0.026484,-0.18578,-0.065661,0.566086,-0.52839,-0.781147,0.156867485,-0.046898466,2.07252438
0.19397,1.538091,9.291681,-0.039228,-0.172902,-0.058028,0.566225,-0.528511,-0.783735,0.156664503,-0.047676848,2.072129324
0.169189,1.522454,9.286058,-0.049995,-0.149533,-0.049919,0.566225,-0.528511,-0.783735,0.156424416,-0.04836285,2.071791009
0.227408,1.494291,9.299449,-0.06816,-0.121996,-0.054707,0.559711,-0.534915,-0.812793,0.156074215,-0.048892243,2.071464353
0.215156,1.506314,9.330404,-0.098361,-0.097098,-0.057948,0.559711,-0.534915,-0.812793,0.155592574,-0.049313269,2.07112754
0.303417,1.514258,9.329111,-0.116893,-0.085561,-0.047166,0.558728,-0.525978,-0.789325,0.154996055,-0.049669037,2.07085909
0.350853,1.448369,9.264039,-0.133794,-0.059212,-0.035349,0.558728,-0.525978,-0.789325,0.154330456,-0.049920679,2.070663771
0.319699,1.430228,9.271483,-0.15058,-0.025396,-0.029914,0.561029,-0.531141,-0.786696,0.153558724,-0.049992499,2.07053877
0.365584,1.423725,9.312858,-0.174251,-0.00109,-0.032019,0.561029,-0.531141,-0.786696,0.152687804,-0.049959757,2.070404694
0.350443,1.446778,9.409339,-0.206883,0.005509,-0.047923,0.57179,-0.523508,-0.785892,0.151638721,-0.049866138,2.070188343
0.351536,1.456696,9.469501,-0.228127,0.009541,-0.05394,0.57179,-0.523508,-0.785892,0.150503401,-0.049764629,2.069953718
0.344167,1.457898,9.475062,-0.243151,-0.002283,-0.055149,0.564015,-0.520733,-0.786305,0.149274619,-0.049704258,2.069709407
0.344275,1.508154,9.510657,-0.234354,0.001712,-0.048892,0.564015,-0.520733,-0.786305,0.148107185,-0.049645755,2.069493719
0.32783,1.551714,9.535913,-0.215183,-0.000447,-0.037775,0.561113,-0.520437,-0.781286,0.147013666,-0.049589416,2.069346326
0.377183,1.579874,9.574447,-0.190891,-0.003492,-0.032282,0.561113,-0.520437,-0.781286,0.146059634,-0.04956924,2.069208986
0.354439,1.622441,9.662069,-0.168153,-0.006047,-0.018418,0.5664,-0.515192,-0.778267,0.145197284,-0.049555347,2.06913905
0.380958,1.627589,9.697821,-0.147038,-0.00638,-0.02289,0.5664,-0.515192,-0.778267,0.144460336,-0.049556464,2.069046111
0.28415,1.656533,9.825043,-0.12237,-0.002877,-0.019344,0.561071,-0.525789,-0.783991,0.143826205,-0.049525571,2.06900274
0.278521,1.698642,9.845444,-0.101118,-0.006504,-0.010298,0.561071,-0.525789,-0.783991,0.143315766,-0.049536427,2.06897211
0.491363,1.633116,9.767632,-0.072504,-0.032048,0.004573,0.575375,-0.508234,-0.793149,0.142928111,-0.049668549,2.068968601
0.567108,1.545226,9.66172,-0.011123,-0.060596,-0.005908,0.575375,-0.508234,-0.793149,0.142868473,-0.049950245,2.068921163
0.606059,1.530859,9.589016,0.035063,-0.054238,-0.02069,0.566588,-0.51805,-0.783502,0.143024435,-0.050173141,2.06881962
0.619159,1.665231,9.669506,0.044659,-0.025073,-0.021911,0.566588,-0.51805,-0.783502,0.143246441,-0.050267616,2.068718199
0.521588,1.80077,9.759804,0.01186,0.008126,-0.001164,0.56246,-0.518913,-0.804521,0.143279585,-0.050195953,2.068753856
0.418335,1.739999,9.839217,-0.033808,0.03434,0.022764,0.56246,-0.518913,-0.804521,0.143096029,-0.050028279,2.068916241
0.405577,1.623785,9.739277,-0.048112,0.051887,0.037134,0.565493,-0.511243,-0.806777,0.142819045,-0.049767823,2.06915399
0.447549,1.455138,9.615803,-0.022951,0.068245,0.041412,0.565493,-0.511243,-0.806777,0.142684061,-0.049445531,2.069432842
0.481502,1.368805,9.487478,0.028764,0.077368,0.056687,0.564575,-0.510495,-0.788851,0.142785709,-0.049072588,2.069795539
0.563253,1.283382,9.404404,0.074297,0.093456,0.079742,0.564575,-0.510495,-0.788851,0.143127026,-0.048652871,2.070282364
0.625696,1.247705,9.418266,0.095739,0.110869,0.10102,0.566737,-0.515537,-0.783633,0.143551839,-0.048145888,2.070897034
0.786393,1.142131,9.787024,0.097747,0.104355,0.099593,0.566737,-0.515537,-0.783633,0.144005765,-0.047686866,2.071490341
1.180626,1.031699,10.981929,0.226367,-0.012539,0.020596,0.559057,-0.518235,-0.789341,0.145107068,-0.047733275,2.071625552
0.814088,1.225523,10.613553,0.358167,-0.167711,-0.053711,0.559057,-0.518235,-0.789341,0.146908964,-0.048509911,2.071262524
0.526522,1.303433,10.403081,0.419733,-0.237812,-0.077785,0.560996,-0.533862,-0.786945,0.149008352,-0.04959788,2.070762469
0.445318,1.364183,9.994536,0.422106,-0.267659,-0.077743,0.560996,-0.533862,-0.786945,0.151140604,-0.050849177,2.07020248
0.420218,1.403659,9.906364,0.365062,-0.270038,-0.049854,0.556538,-0.531746,-0.800145,0.152962955,-0.052115955,2.069791036
0.434553,1.296128,9.483653,0.269581,-0.236264,-0.008696,0.556538,-0.531746,-0.800145,0.15431494,-0.053262951,2.069592208
0.364801,1.128345,9.286953,0.17438,-0.171896,0.015892,0.560389,-0.53064,-0.773943,0.155163624,-0.054094531,2.069573376
0.377789,1.112908,9.296557,0.094514,-0.098515,0.021423,0.560389,-0.53064,-0.773943,0.155626817,-0.054584044,2.069628284
0.467611,1.147212,9.384492,0.042647,-0.051133,0.028271,0.556483,-0.520919,-0.792145,0.1558091,-0.054829298,2.069740648
0.54176,1.255064,9.485138,0.025749,-0.009947,0.032887,0.556483,-0.520919,-0.792145,0.155921551,-0.054890262,2.069920871
0.644714,1.41074,9.575763,0.030312,-0.006164,0.038288,0.552897,-0.536196,-0.784887,0.156036289,-0.054920229,2.070157573
0.644733,1.573866,9.639367,0.055611,-0.010678,0.044128,0.552897,-0.536196,-0.784887,0.156295017,-0.054993586,2.070392826
0.60859,1.644086,9.573618,0.077608,-0.010486,0.064013,0.561135,-0.533983,-0.789534,0.156640191,-0.055065737,2.070730006
0.613548,1.611664,9.54645,0.083753,-0.008317,0.077256,0.561135,-0.533983,-0.789534,0.157030464,-0.055153458,2.071130926
0.624781,1.56031,9.454391,0.083069,-0.0008,0.07994,0.555562,-0.530897,-0.782024,0.157398205,-0.055190494,2.071555722
0.574468,1.539401,9.350698,0.06794,0.021827,0.081683,0.555562,-0.530897,-0.782024,0.157706867,-0.055133125,2.072002142
0.549878,1.517045,9.329804,0.059596,0.043048,0.10214,0.553218,-0.531086,-0.787358,0.15794945,-0.05497142,2.072570474
0.623907,1.436077,9.348143,0.052828,0.065906,0.10191,0.553218,-0.531086,-0.787358,0.158175313,-0.054712535,2.073151704
0.567393,1.44425,9.476462,0.048891,0.080252,0.096843,0.558652,-0.534051,-0.79228,0.158364629,-0.054363329,2.07372028
0.534664,1.490841,9.528033,0.045719,0.084671,0.101908,0.558652,-0.534051,-0.79228,0.158554504,-0.054012029,2.074316397
0.5386,1.509014,9.592699,0.050538,0.094599,0.098557,0.561268,-0.526014,-0.78677,0.158751883,-0.053593936,2.074891344
0.542325,1.499062,9.584908,0.046891,0.104963,0.108382,0.561268,-0.526014,-0.78677,0.158945545,-0.053147812,2.075535667
0.478687,1.413677,9.628642,0.032716,0.113063,0.133145,0.557445,-0.535696,-0.771629,0.159043667,-0.052665403,2.076325167
0.483129,1.234774,9.579841,0.011963,0.116529,0.099529,0.557445,-0.535696,-0.771629,0.159065118,-0.052155278,2.076934951
0.49852,1.262767,9.60124,-0.028813,0.124728,0.054046,0.557724,-0.535939,-0.776806,0.15887636,-0.051552825,2.077337057
0.454021,1.359268,9.681264,-0.066257,0.121448,0.038598,0.557724,-0.535939,-0.776806,0.158522652,-0.050970059,2.077649297
0.368232,1.402147,9.731111,-0.0822,0.11336,0.048348,0.552381,-0.530358,-0.771826,0.158069424,-0.050419058,2.078010772
0.375686,1.424414,9.811737,-0.094118,0.101157,0.047723,0.552381,-0.530358,-0.771826,0.157575286,-0.049943386,2.078351635
0.399675,1.41319,9.814777,-0.094964,0.089736,0.047208,0.562739,-0.53854,-0.773962,0.157059768,-0.049507734,2.078691294
0.422583,1.357355,9.764068,-0.094346,0.080793,0.049071,0.562739,-0.53854,-0.773962,0.156565281,-0.049133326,2.079022418
0.405645,1.323947,9.69951,-0.100013,0.077198,0.037224,0.557675,-0.533202,-0.774159,0.156027825,-0.04875164,2.07929804
0.360758,1.317418,9.625445,-0.110293,0.083844,0.030858,0.557675,-0.533202,-0.774159,0.155458114,-0.048347683,2.07954106
0.359174,1.237417,9.511343,-0.136752,0.0994,0.039911,0.558003,-0.536182,-0.781984,0.154735652,-0.047857978,2.079850053
0.361774,1.256456,9.522283,-0.167446,0.113926,0.049401,0.558003,-0.536182,-0.781984,0.153874977,-0.0473193,2.080207322
0.37904,1.26283,9.627483,-0.17726,0.112583,0.064102,0.563381,-0.52832,-0.778905,0.152944682,-0.046782838,2.080630059
0.425779,1.274248,9.687209,-0.18141,0.092533,0.07578,0.563381,-0.52832,-0.778905,0.152009289,-0.046369247,2.081100582
0.888776,1.060872,9.790267,-0.177568,0.064295,0.106909,0.55303,-0.528228,-0.782122,0.151069272,-0.0461027,2.081711552
0.48725,0.806064,9.945429,-0.213241,0.009288,0.122073,0.55303,-0.528228,-0.782122,0.149967288,-0.046134413,2.082347865
-0.050825,1.303675,9.613856,-0.207193,-0.00914,0.098753,0.568264,-0.538889,-0.778825,0.148883491,-0.046223477,2.082866455
0.131146,1.44707,9.666765,-0.201998,0.00654,0.07598,0.568264,-0.538889,-0.778825,0.147848283,-0.046233355,2.083272628
0.577292,1.345046,9.788501,-0.202735,0.004245,0.106773,0.55561,-0.533634,-0.784671,0.146784452,-0.046261001,2.083841972
0.59856,1.015793,9.817451,-0.232617,-0.02757,0.181077,0.55561,-0.533634,-0.784671,0.145573106,-0.046515244,2.084743749
0.073864,1.031553,9.674503,-0.237431,-0.055928,0.186185,0.564351,-0.521079,-0.791673,0.144320046,-0.046897401,2.085632925
0.112363,1.04146,9.575668,-0.20842,-0.040715,0.110261,0.564351,-0.521079,-0.791673,0.143246005,-0.047163791,2.086175094
0.362761,1.027809,9.772541,-0.190285,-0.042368,0.044191,0.560668,-0.530882,-0.779121,0.142259981,-0.047374993,2.086402406
0.249437,1.165437,9.823601,-0.175976,-0.054072,-0.009643,0.560668,-0.530882,-0.779121,0.141376547,-0.047621696,2.086341494
-0.015522,1.420894,9.780715,-0.151951,-0.069803,-0.053302,0.558736,-0.523345,-0.786869,0.140606438,-0.047900076,2.086054422
0.094656,1.545614,9.758375,-0.126207,-0.065725,-0.065278,0.558736,-0.523345,-0.786869,0.139985484,-0.04816568,2.085709964
0.177502,1.446623,9.873992,-0.111687,-0.06291,-0.053486,0.56117,-0.52054,-0.781476,0.139416751,-0.048410166,2.085425615
0.150383,1.419098,9.896284,-0.103386,-0.06903,-0.050722,0.56117,-0.52054,-0.781476,0.138906678,-0.048702596,2.085151319
0.168251,1.384139,9.957573,-0.10119,-0.082025,-0.057944,0.558833,-0.528819,-0.792163,0.138391911,-0.049038502,2.084848068
0.193997,1.357018,10.024812,-0.090229,-0.100452,-0.063197,0.558833,-0.528819,-0.792163,0.137951895,-0.049478238,2.084490537
0.21709,1.326705,10.034447,-0.089909,-0.131361,-0.062025,0.555792,-0.528402,-0.784554,0.137496469,-0.05005589,2.084135537
0.249545,1.26346,9.984129,-0.085188,-0.152402,-0.075864,0.555792,-0.528402,-0.784554,0.137087015,-0.050744562,2.083679971
0.247585,1.265225,9.96899,-0.079639,-0.165264,-0.090057,0.556155,-0.517939,-0.78432,0.136692256,-0.051471806,2.083143369
0.26869,1.293011,9.977902,-0.069617,-0.168978,-0.098403,0.556155,-0.517939,-0.78432,0.136367659,-0.052227604,2.082565211
0.29665,1.280731,9.973919,-0.053703,-0.183074,-0.099311,0.549724,-0.513639,-0.807973,0.136106523,-0.053037193,2.081968098
0.281358,1.246007,9.983635,-0.036418,-0.199863,-0.097859,0.549724,-0.513639,-0.807973,0.135949827,-0.053946632,2.081371981
0.304776,1.211679,10.043969,-0.012836,-0.216824,-0.098612,0.54941,-0.526839,-0.810854,0.135894448,-0.054923441,2.08078075
0.357079,1.19907,10.068917,0.01702,-0.23541,-0.104933,0.54941,-0.526839,-0.810854,0.136009396,-0.056004219,2.080125431
0.378151,1.222552,10.076965,0.039684,-0.258899,-0.113679,0.54618,-0.523564,-0.798009,0.136223862,-0.057179227,2.079426531
0.427612,1.214754,10.103619,0.049718,-0.286715,-0.127444,0.54618,-0.523564,-0.798009,0.136512365,-0.058498575,2.078624064
0.440116,1.261037,10.111526,0.046303,-0.315965,-0.133734,0.55151,-0.512965,-0.792284,0.136770726,-0.059942853,2.077760823
0.444644,1.270605,10.090341,0.031778,-0.347159,-0.134414,0.55151,-0.512965,-0.792284,0.136976518,-0.061556428,2.076881631
0.489777,1.26649,10.039092,0.000843,-0.376751,-0.133431,0.546452,-0.515716,-0.797834,0.137012489,-0.063301374,2.075990622
0.508061,1.252215,10.015002,-0.033232,-0.400779,-0.139188,0.546452,-0.515716,-0.797834,0.136900177,-0.06517722,2.075050727
0.519477,1.245163,9.929654,-0.06043,-0.416062,-0.130205,0.549215,-0.515891,-0.800266,0.136633857,-0.06711937,2.074146926
0.565999,1.199532,9.850471,-0.087698,-0.423859,-0.125914,0.549215,-0.515891,-0.800266,0.136249378,-0.06911903,2.073257924
0.586315,1.157046,9.756019,-0.110714,-0.420339,-0.125925,0.541437,-0.513115,-0.800679,0.135733668,-0.071085877,2.072379011
0.63186,1.105684,9.703287,-0.120776,-0.418076,-0.125295,0.541437,-0.513115,-0.800679,0.135186682,-0.073058187,2.071498736
0.663742,1.060167,9.638843,-0.14004,-0.419938,-0.127414,0.547192,-0.51097,-0.808072,0.134528431,-0.075023342,2.070604115
0.714769,1.03611,9.582574,-0.155813,-0.406027,-0.121555,0.547192,-0.51097,-0.808072,0.133807505,-0.076939574,2.069752813
0.767085,0.965366,9.54537,-0.180945,-0.395342,-0.134447,0.54021,-0.514275,-0.826723,0.132948959,-0.078779239,2.068854823
0.775643,1.008195,9.493481,-0.214566,-0.380699,-0.142383,0.54021,-0.514275,-0.826723,0.131944051,-0.080557643,2.067919798
0.831857,0.984572,9.528294,-0.259087,-0.365632,-0.146981,0.542735,-0.508854,-0.821271,0.130701358,-0.082243946,2.066974946
0.914825,0.978704,9.548956,-0.308717,-0.360063,-0.150052,0.542735,-0.508854,-0.821271,0.129230551,-0.083917369,2.06601936
0.9842,0.957064,9.587277,-0.373198,-0.356684,-0.15948,0.532104,-0.508519,-0.819311,0.127424274,-0.085553773,2.065041749
1.058039,0.919784,9.631942,-0.429641,-0.370563,-0.182423,0.532104,-0.508519,-0.819311,0.125366007,-0.087262259,2.063924109
1.133934,0.985745,9.733498,-0.475049,-0.39405,-0.202993,0.538689,-0.499012,-0.836884,0.123075069,-0.089061956,2.062686321
1.187891,1.050204,9.833385,-0.540114,-0.420779,-0.220056,0.538689,-0.499012,-0.836884,0.120487408,-0.091001908,2.06135809
1.19653,1.106893,9.820581,-0.616278,-0.450594,-0.222152,0.527682,-0.492961,-0.824452,0.117505599,-0.093077035,2.060019841
1.225697,1.145257,9.776514,-0.687839,-0.470972,-0.229992,0.527682,-0.492961,-0.824452,0.114191147,-0.095268349,2.058623978
1.220405,1.1243,9.742293,-0.743001,-0.491868,-0.238551,0.533577,-0.490937,-0.834434,0.110590532,-0.097548414,2.057191533
1.201941,1.097664,9.735695,-0.801889,-0.510074,-0.240986,0.533577,-0.490937,-0.834434,0.106718203,-0.09993805,2.055734724
1.168293,1.062896,9.767299,-0.870804,-0.52777,-0.247168,0.516969,-0.473223,-0.855835,0.102490176,-0.102403607,2.054248383
1.166186,1.01229,9.767545,-0.945571,-0.548756,-0.251522,0.516969,-0.473223,-0.855835,0.097912036,-0.104992578,2.05273904
1.233656,0.954133,9.700475,-1.03215,-0.568704,-0.254559,0.524279,-0.472898,-0.845009,0.092888243,-0.107671659,2.051233082
1.311098,0.863354,9.621922,-1.103593,-0.580382,-0.268909,0.524279,-0.472898,-0.845009,0.087536311,-0.110425144,2.049647536
1.379817,0.756768,9.622987,-1.169996,-0.576693,-0.286587,0.50426,-0.457141,-0.853681,0.081846535,-0.113146567,2.04801204
1.328073,0.707581,9.636621,-1.233808,-0.56715,-0.290183,0.50426,-0.457141,-0.853681,0.07586021,-0.115843451,2.046355652
1.231596,0.654184,9.611065,-1.282216,-0.559888,-0.292991,0.51254,-0.449575,-0.855623,0.069617688,-0.1184985,2.044719964
1.269521,0.596206,9.516577,-1.328831,-0.552025,-0.299125,0.51254,-0.449575,-0.855623,0.063165831,-0.121137247,2.043056629
1.351497,0.549671,9.482529,-1.38238,-0.54694,-0.311972,0.501129,-0.429231,-0.874062,0.056438457,-0.123743373,2.041352664
1.330744,0.510111,9.551621,-1.42493,-0.533977,-0.323531,0.501129,-0.429231,-0.874062,0.049525065,-0.126307438,2.039606077
1.362898,0.490545,9.640105,-1.463725,-0.537378,-0.331454,0.50618,-0.418389,-0.86316,0.042407365,-0.128884609,2.037844882
1.419175,0.419285,9.758805,-1.506818,-0.547252,-0.338636,0.50618,-0.418389,-0.86316,0.035099075,-0.131536464,2.036055395
1.433139,0.356929,9.854601,-1.549687,-0.544195,-0.341583,0.49758,-0.400957,-0.886677,0.027562862,-0.134171703,2.034276782
1.464815,0.245937,9.838113,-1.570372,-0.548898,-0.332147,0.49758,-0.400957,-0.886677,0.019936556,-0.136858883,2.032558923
1.47205,0.175226,9.824489,-1.550197,-0.535222,-0.3147,0.498033,-0.387878,-0.886385,0.012382942,-0.139478029,2.030958525
1.539087,0.099674,9.796392,-1.503046,-0.529863,-0.305851,0.498033,-0.387878,-0.886385,0.005077915,-0.142096443,2.029413996
1.606553,-0.030222,9.759737,-1.464813,-0.523358,-0.288285,0.500245,-0.365549,-0.911746,-0.002064446,-0.144680055,2.027964935
1.599045,-0.162579,9.660483,-1.433583,-0.504172,-0.271536,0.500245,-0.365549,-0.911746,-0.009044771,-0.147190643,2.026629915
1.562451,-0.298707,9.589325,-1.408836,-0.477974,-0.252367,0.490348,-0.352378,-0.914671,-0.015932227,-0.149564588,2.025409929
1.585352,-0.431859,9.566742,-1.395544,-0.456424,-0.24211,0.490348,-0.352378,-0.914671,-0.022742819,-0.151851599,2.024253194
1.604077,-0.496554,9.498334,-1.393462,-0.442366,-0.233389,0.482982,-0.341877,-0.917498,-0.029566955,-0.154061291,2.023167407
1.608369,-0.607319,9.545671,-1.403118,-0.426128,-0.218595,0.482982,-0.341877,-0.917498,-0.036432734,-0.156208431,2.0221555
1.575584,-0.677157,9.509706,-1.39505,-0.425976,-0.196883,0.4885,-0.334136,-0.917008,-0.043293295,-0.15834372,2.021282154
1.580496,-0.764472,9.305379,-1.383974,-0.419224,-0.180076,0.4885,-0.334136,-0.917008,-0.050094409,-0.160460875,2.020492672
1.635643,-0.833817,9.244368,-1.370153,-0.400054,-0.155677,0.482662,-0.316878,-0.942957,-0.056863759,-0.162467673,2.019842623
1.637209,-0.857773,9.252383,-1.352043,-0.364721,-0.147421,0.482662,-0.316878,-0.942957,-0.06353092,-0.164313307,2.019230239
1.60908,-0.90173,9.218404,-1.342655,-0.317962,-0.135811,0.47243,-0.292638,-0.932705,-0.070176595,-0.165912693,2.018669238
1.511321,-0.941974,9.200634,-1.338568,-0.263139,-0.117676,0.47243,-0.292638,-0.932705,-0.076797208,-0.167248708,2.018194037
1.546162,-1.048526,9.329484,-1.332295,-0.225728,-0.110368,0.473211,-0.282539,-0.940238,-0.083408553,-0.168385285,2.017751893
1.53438,-1.13608,9.432959,-1.316705,-0.222312,-0.11737,0.473211,-0.282539,-0.940238,-0.089918965,-0.169523885,2.017278018
1.538766,-1.182341,9.456347,-1.351109,-0.201851,-0.120134,0.47349,-0.282782,-0.945415,-0.09661618,-0.170551501,2.016811177
1.499352,-1.219588,9.516661,-1.401984,-0.179923,-0.120921,0.47349,-0.282782,-0.945415,-0.103547916,-0.171487137,2.016313287
1.474819,-1.306663,9.563444,-1.490597,-0.147669,-0.120828,0.469425,-0.24867,-0.94497,-0.11093787,-0.172252936,2.015794034
1.445943,-1.37333,9.621258,-1.576977,-0.132464,-0.11143,0.469425,-0.24867,-0.94497,-0.118749688,-0.172954541,2.015330317
1.435388,-1.485956,9.594997,-1.654776,-0.131298,-0.08645,0.475222,-0.241172,-0.949657,-0.126990333,-0.173625516,2.015000258
1.422079,-1.697828,9.601051,-1.730491,-0.143587,-0.048621,0.475222,-0.241172,-0.949657,-0.135627116,-0.174348571,2.014871714
1.394619,-1.826093,9.546872,-1.795104,-0.133663,-0.022747,0.47954,-0.213058,-0.961801,-0.144626648,-0.174992545,2.01485653
1.244118,-1.946645,9.691676,-1.843038,-0.13055,0.003407,0.47954,-0.213058,-0.961801,-0.153872133,-0.175614598,2.014992578
1.308278,-2.019762,9.491767,-1.887916,-0.156657,0.045829,0.471986,-0.199698,-0.959391,-0.163401722,-0.176317425,2.015370861
1.449487,-2.137218,9.349994,-1.941376,-0.117637,0.08775,0.471986,-0.199698,-0.959391,-0.173213443,-0.176802522,2.015930274
1.388977,-2.230077,9.300957,-2.00246,-0.070983,0.113439,0.478704,-0.182222,-0.9742,-0.183364527,-0.177016378,2.016582033
1.390639,-2.294907,9.193995,-2.055546,-0.016093,0.142943,0.478704,-0.182222,-0.9742,-0.193780534,-0.17693974,2.017330046
1.402801,-2.266277,9.066805,-2.087139,0.057247,0.16795,0.470969,-0.174094,-0.971907,-0.20438125,-0.176457453,2.018155326
1.385474,-2.317101,9.062457,-2.108444,0.124301,0.199394,0.470969,-0.174094,-0.971907,-0.215083823,-0.175619904,2.019033366
1.279583,-2.336126,9.033263,-2.093693,0.19168,0.228165,0.470545,-0.135532,-0.98672,-0.225739429,-0.17439957,2.019962336
1.225688,-2.362509,8.860917,-2.003682,0.247545,0.26056,0.470545,-0.135532,-0.98672,-0.235940411,-0.172874134,2.02098098
1.203836,-2.356673,8.823011,-1.859806,0.31047,0.271495,0.480763,-0.143592,-0.986267,-0.24543204,-0.171006281,2.021997757
1.031579,-2.314779,8.916942,-1.726456,0.375306,0.264479,0.480763,-0.143592,-0.986267,-0.254214226,-0.168838233,2.022845219
0.94599,-2.452095,8.981289,-1.602974,0.434074,0.231431,0.470797,-0.103415,-0.970487,-0.262351426,-0.166407703,2.023424634
0.951901,-2.472205,9.046457,-1.473909,0.482299,0.184259,0.470797,-0.103415,-0.970487,-0.269772935,-0.163815696,2.023700675
1.206942,-2.467939,9.450336,-1.40861,0.519539,0.183059,0.486575,-0.098382,-0.966838,-0.276872205,-0.161030289,2.023898543
1.208736,-2.634976,9.34128,-1.27676,0.521303,0.194037,0.486575,-0.098382,-0.966838,-0.283299452,-0.158233782,2.02413048
1.069305,-2.706821,9.306514,-1.099599,0.51706,0.197111,0.48156,-0.095781,-0.969683,-0.288858538,-0.155437781,2.024393973
0.860583,-2.678115,9.35391,-0.92564,0.514371,0.199417,0.48156,-0.095781,-0.969683,-0.293529617,-0.152664382,2.024630413
0.953094,-2.429019,9.432164,-0.826742,0.520481,0.243823,0.492638,-0.074947,-0.965998,-0.297751465,-0.149782091,2.025048437
0.92465,-2.422154,9.376263,-0.778852,0.519704,0.335055,0.492638,-0.074947,-0.965998,-0.301779286,-0.146781049,2.025907802
0.96614,-2.630969,9.282565,-0.76385,0.534189,0.412486,0.495539,-0.075243,-0.971018,-0.305795447,-0.143577408,2.027116496
1.06841,-2.895643,9.099763,-0.771853,0.570381,0.46719,0.495539,-0.075243,-0.971018,-0.309858174,-0.140127938,2.028509025
1.197486,-3.056736,8.889824,-0.821242,0.646275,0.507373,0.508319,-0.064441,-0.957055,-0.314187535,-0.1362358,2.02994763
1.178861,-3.285782,8.850488,-0.896871,0.731628,0.549661,0.508319,-0.064441,-0.957055,-0.318879366,-0.131879927,2.031450482
1.074847,-3.443874,8.942112,-1.00647,0.794629,0.580584,0.511402,-0.059505,-0.961958,-0.32413232,-0.127154708,2.032980735
1.036649,-3.609716,8.906516,-1.140788,0.843522,0.612063,0.511402,-0.059505,-0.961958,-0.330038238,-0.122153291,2.034551968
0.969405,-3.764572,8.92994,-1.307842,0.887825,0.632827,0.516787,-0.059733,-0.964233,-0.336787691,-0.116884349,2.036142487
0.904155,-3.95236,8.954915,-1.455798,0.918926,0.636556,0.516787,-0.059733,-0.964233,-0.344243165,-0.111466181,2.037633453
0.879983,-4.137338,8.906488,-1.619045,0.958437,0.60385,0.522438,-0.044024,-0.960979,-0.352494893,-0.10589226,2.038874574
0.878036,-4.209972,8.948978,-1.801543,1.005073,0.573254,0.522438,-0.044024,-0.960979,-0.361606877,-0.100157403,2.039823981
0.852192,-4.343526,8.985092,-1.964438,1.021661,0.515023,0.532587,-0.025078,-0.94182,-0.371509897,-0.094426472,2.040411215
0.662903,-4.450364,8.953592,-2.131559,1.035964,0.458058,0.532587,-0.025078,-0.94182,-0.382196221,-0.088742386,2.040650448
0.622103,-4.54855,9.0103,-2.271507,1.031116,0.393393,0.552049,-0.010242,-0.950724,-0.393567552,-0.08318639,2.040540597
0.581851,-4.614499,8.910495,-2.396756,1.026407,0.339455,0.552049,-0.010242,-0.950724,-0.405524214,-0.077773074,2.040120705
0.735058,-4.58815,9.012171,-2.495963,1.021495,0.296173,0.54467,0.016439,-0.942845,-0.417977266,-0.072460045,2.039458509
0.799376,-4.740403,8.97163,-2.552286,1.000705,0.244959,0.54467,0.016439,-0.942845,-0.430680196,-0.067370401,2.038526032
0.724068,-4.826976,8.898219,-2.574085,0.98033,0.169301,0.563428,0.039972,-0.933453,-0.443490098,-0.062531334,2.037224906
0.746812,-4.987014,8.970924,-2.546541,0.932995,0.095193,0.563428,0.039972,-0.933453,-0.456133635,-0.05809748,2.035635277
0.64623,-5.024763,8.910735,-2.490019,0.874945,0.000498,0.579744,0.068789,-0.924101,-0.468498373,-0.054140887,2.033672042
0.622721,-4.977588,8.986748,-2.465033,0.807583,-0.066292,0.579744,0.068789,-0.924101,-0.480718563,-0.05067447,2.031541309
0.694408,-5.092356,8.951286,-2.433836,0.728216,-0.141469,0.585953,0.084013,-0.931202,-0.49279773,-0.047746836,2.029236897
0.69384,-4.965542,9.005161,-2.384557,0.658338,-0.204218,0.585953,0.084013,-0.931202,-0.504612637,-0.04531786,2.026774812
0.595631,-5.0018,8.775276,-2.329961,0.597538,-0.248655,0.596702,0.107826,-0.919692,-0.516173947,-0.043277953,2.024238481
0.630591,-5.10011,8.728832,-2.23708,0.542683,-0.274153,0.596702,0.107826,-0.919692,-0.52725859,-0.041581807,2.021706583
0.820067,-5.112363,8.817377,-2.100206,0.440212,-0.309466,0.591855,0.131838,-0.911714,-0.537683324,-0.040430622,2.019268794
0.743823,-5.043109,8.823895,-1.994332,0.288587,-0.280638,0.591855,0.131838,-0.911714,-0.547583814,-0.039892484,2.017330971
0.547335,-5.117101,8.859944,-1.875443,0.103664,-0.235032,0.587203,0.144903,-0.914325,-0.556934681,-0.040027259,2.016100217
0.498226,-5.260635,8.863406,-1.773306,-0.074641,-0.222692,0.587203,0.144903,-0.914325,-0.565778146,-0.040908633,2.015365695
0.472091,-5.359987,8.830545,-1.691841,-0.214549,-0.245977,0.584797,0.16363,-0.906307,-0.574242403,-0.042434941,2.014934528
0.520178,-5.410318,8.711514,-1.620506,-0.307105,-0.27712,0.584797,0.16363,-0.906307,-0.582338029,-0.044450675,2.01462276
0.530347,-5.470946,8.605577,-1.551475,-0.368908,-0.303112,0.588055,0.181887,-0.905741,-0.590108098,-0.046785037,2.014390893
0.580547,-5.508998,8.454132,-1.487357,-0.421364,-0.32389,0.588055,0.181887,-0.905741,-0.597544094,-0.049409716,2.014236431
0.60311,-5.538236,8.230851,-1.409554,-0.464791,-0.341345,0.581143,0.205468,-0.908275,-0.604610621,-0.052250799,2.01414344
0.627078,-5.631535,8.041373,-1.330093,-0.489216,-0.348727,0.581143,0.205468,-0.908275,-0.611266367,-0.055226797,2.014118028
0.59035,-5.650667,7.920868,-1.251692,-0.499636,-0.347783,0.578011,0.203269,-0.900725,-0.617549712,-0.058229759,2.014160597
0.545511,-5.716164,7.839055,-1.185951,-0.507745,-0.345498,0.578011,0.203269,-0.900725,-0.623490851,-0.061271817,2.0142398
0.585168,-5.797326,7.752302,-1.140427,-0.493631,-0.355523,0.57488,0.231179,-0.921106,-0.629217069,-0.064272563,2.014261198
0.614715,-5.857799,7.712145,-1.1114,-0.469608,-0.371875,0.57488,0.231179,-0.921106,-0.634773798,-0.067237564,2.014155867
0.655327,-5.911309,7.6802,-1.084104,-0.446745,-0.380067,0.566266,0.234683,-0.905986,-0.640204393,-0.070122664,2.013973236
0.555227,-5.952937,7.710653,-1.057269,-0.434004,-0.365565,0.566266,0.234683,-0.905986,-0.645486337,-0.072927218,2.01381846
0.497635,-5.934252,7.7134,-1.041077,-0.429652,-0.352224,0.553605,0.248028,-0.90648,-0.650707474,-0.07566201,2.013733096
0.498623,-5.991199,7.706462,-1.039389,-0.421228,-0.344278,0.553605,0.248028,-0.90648,-0.655904962,-0.078352611,2.013653526
0.533691,-6.017223,7.616093,-1.049087,-0.397244,-0.341614,0.556082,0.256186,-0.898381,-0.661163118,-0.080927531,2.013524441
0.621283,-6.08796,7.544652,-1.077067,-0.383518,-0.343233,0.556082,0.256186,-0.898381,-0.666541684,-0.083467091,2.013360852
0.69355,-6.136837,7.495297,-1.101716,-0.380589,-0.339804,0.550063,0.268212,-0.924448,-0.67206136,-0.08597246,2.013257773
0.727984,-6.14303,7.357924,-1.133273,-0.375141,-0.336014,0.550063,0.268212,-0.924448,-0.677722757,-0.088458386,2.013124307
0.703805,-6.177106,7.275159,-1.139673,-0.360481,-0.323524,0.557917,0.284231,-0.913271,-0.683433546,-0.09083563,2.013003897
0.699201,-6.189766,7.192083,-1.154898,-0.351435,-0.313244,0.557917,0.284231,-0.913271,-0.689206243,-0.093159083,2.012911918
0.653881,-6.189161,7.124747,-1.167542,-0.330827,-0.311498,0.545076,0.292346,-0.913881,-0.695054128,-0.095385112,2.012796098
0.667908,-6.171884,7.147353,-1.182412,-0.303923,-0.321709,0.545076,0.292346,-0.913881,-0.700948701,-0.097554662,2.012545381
0.73985,-6.201457,7.248322,-1.180251,-0.273802,-0.328852,0.535457,0.305274,-0.921984,-0.706837462,-0.099620993,2.01222363
0.694531,-6.210829,7.328876,-1.150997,-0.246205,-0.346565,0.535457,0.305274,-0.921984,-0.712547955,-0.101655384,2.011714587
0.686165,-6.282907,7.409698,-1.113929,-0.218535,-0.35573,0.537187,0.316775,-0.898294,-0.718076444,-0.103604988,2.011086425
0.754262,-6.327045,7.496609,-1.076384,-0.210032,-0.363749,0.537187,0.316775,-0.898294,-0.723394919,-0.105565657,2.010414874
0.826778,-6.338161,7.530759,-1.043316,-0.213813,-0.364711,0.527387,0.324472,-0.906514,-0.72856504,-0.107534092,2.009794043
0.822641,-6.369794,7.505284,-0.995548,-0.226992,-0.351296,0.527387,0.324472,-0.906514,-0.733490099,-0.10952307,2.009246114
0.808533,-6.472868,7.430964,-0.954,-0.241459,-0.333491,0.524884,0.348674,-0.893201,-0.738235809,-0.111495206,2.00880301
0.797168,-6.508839,7.315852,-0.914038,-0.253662,-0.3266,0.524884,0.348674,-0.893201,-0.742773719,-0.113504395,2.008456108
0.818731,-6.502341,7.249088,-0.883823,-0.25505,-0.327067,0.529941,0.351425,-0.887651,-0.74717689,-0.115508365,2.008105227
0.834055,-6.493448,7.11409,-0.859551,-0.244238,-0.326846,0.529941,0.351425,-0.887651,-0.751439195,-0.117486854,2.007742757
0.86393,-6.50207,7.024839,-0.834821,-0.226766,-0.330564,0.522059,0.367765,-0.877417,-0.75558486,-0.119402319,2.007283194
0.877144,-6.528053,6.931365,-0.795962,-0.209508,-0.328243,0.522059,0.367765,-0.877417,-0.75951475,-0.121262352,2.006811675
0.934678,-6.526681,6.89641,-0.753946,-0.191074,-0.318861,0.520371,0.361616,-0.898401,-0.763246841,-0.123011923,2.006357977
0.954562,-6.573208,6.916985,-0.72261,-0.177309,-0.313523,0.520371,0.361616,-0.898401,-0.766802742,-0.124708279,2.005841429
0.977706,-6.591698,6.814929,-0.693416,-0.140185,-0.299958,0.515245,0.385871,-0.885246,-0.770217986,-0.126212352,2.005236917
0.965289,-6.68364,6.943675,-0.651132,-0.11064,-0.28396,0.515245,0.385871,-0.885246,-0.773400246,-0.127570167,2.004604199
0.939829,-6.77694,7.046285,-0.595188,-0.109789,-0.280896,0.506825,0.378427,-0.880715,-0.776319119,-0.128902866,2.004005412
0.998717,-6.802623,7.003551,-0.541114,-0.098863,-0.277993,0.506825,0.378427,-0.880715,-0.778948022,-0.130201409,2.003360233
1.04467,-6.864946,7.094052,-0.495827,-0.089817,-0.27948,0.507279,0.391506,-0.880423,-0.781360679,-0.131461223,2.002685384
1.150717,-6.854116,7.157833,-0.473803,-0.101091,-0.28649,0.507279,0.391506,-0.880423,-0.783649226,-0.132800729,2.002023904
1.252324,-6.802831,7.106666,-0.469868,-0.116986,-0.293611,0.510314,0.399178,-0.882679,-0.785937126,-0.134209664,2.001397976
1.327918,-6.806225,7.033457,-0.467649,-0.105086,-0.299501,0.510314,0.399178,-0.882679,-0.788189579,-0.135612316,2.000710351
1.286029,-6.819774,6.975378,-0.455379,-0.087858,-0.305069,0.505159,0.401901,-0.882935,-0.790384384,-0.136962258,1.999957747
1.316257,-6.865721,6.897056,-0.428533,-0.066896,-0.310416,0.505159,0.401901,-0.882935,-0.792416088,-0.13827246,1.999100162
1.369039,-6.910454,6.810849,-0.384629,-0.049238,-0.29546,0.507782,0.401847,-0.882778,-0.794241389,-0.139455829,1.998251704
1.396396,-6.922753,6.772295,-0.328346,-0.036125,-0.285502,0.507782,0.401847,-0.882778,-0.795767558,-0.140572386,1.997375793
1.429589,-6.981694,6.781322,-0.277722,-0.030318,-0.28447,0.505103,0.412728,-0.874935,-0.797052644,-0.141652885,1.996478903
1.499872,-6.99959,6.772189,-0.24561,-0.021252,-0.287678,0.505103,0.412728,-0.874935,-0.798154925,-0.142727555,1.995544209
1.534581,-7.02598,6.782982,-0.24795,-0.011993,-0.30037,0.505013,0.410112,-0.874994,-0.799272111,-0.143803289,1.994540417
1.562813,-7.086538,6.791224,-0.250904,-0.007537,-0.319236,0.505013,0.410112,-0.874994,-0.800376014,-0.144945398,1.99344702
1.537209,-7.05549,6.752693,-0.258269,-0.024372,-0.329294,0.499209,0.410704,-0.864953,-0.801534565,-0.146170393,1.992384725
1.476939,-7.009736,6.671734,-0.240269,-0.040228,-0.324474,0.499209,0.410704,-0.864953,-0.802597645,-0.147447381,1.991393901
1.44146,-6.976552,6.619112,-0.200966,-0.047129,-0.305321,0.497005,0.410393,-0.872876,-0.803492022,-0.148667558,1.99051909
1.395608,-6.981388,6.583832,-0.154831,-0.04725,-0.291451,0.497005,0.410393,-0.872876,-0.804146852,-0.14985173,1.98967161
1.376883,-6.951424,6.597444,-0.117113,-0.045611,-0.282834,0.500451,0.425792,-0.877546,-0.804631042,-0.150986683,1.988850065
1.336304,-6.919598,6.569621,-0.09994,-0.032915,-0.261382,0.500451,0.425792,-0.877546,-0.805017685,-0.152013653,1.988056673
1.372369,-6.957504,6.573419,-0.101455,-0.011174,-0.231822,0.499621,0.41843,-0.867366,-0.805430141,-0.152846123,1.987290962
1.365918,-6.97406,6.574388,-0.128373,-0.004858,-0.20412,0.499621,0.41843,-0.867366,-0.805972729,-0.153570086,1.98659653
1.373145,-6.974342,6.541917,-0.154864,0.006198,-0.186345,0.501009,0.425307,-0.887901,-0.806665939,-0.154179311,1.985946151
1.386293,-6.949557,6.543111,-0.178725,0.019388,-0.176495,0.501009,0.425307,-0.887901,-0.807460798,-0.15472059,1.985260655
1.404025,-6.912618,6.56638,-0.200643,0.026566,-0.174913,0.504999,0.426291,-0.864288,-0.808376974,-0.155218934,1.984542469
1.44874,-6.890474,6.588171,-0.210244,0.026345,-0.170855,0.504999,0.426291,-0.864288,-0.809327987,-0.155717016,1.983852069
1.452854,-6.871945,6.664814,-0.220576,0.024036,-0.166601,0.492388,0.4369,-0.867429,-0.810349162,-0.156195481,1.983182874
1.465706,-6.881514,6.759045,-0.22971,0.011858,-0.160485,0.492388,0.4369,-0.867429,-0.811410898,-0.156707264,1.98258269
1.475981,-6.883202,6.789682,-0.236505,-0.021126,-0.155041,0.495945,0.430645,-0.888098,-0.812543303,-0.157300886,1.982157737
1.536018,-6.856167,6.758764,-0.24461,-0.036705,-0.140046,0.495945,0.430645,-0.888098,-0.813718207,-0.15790662,1.98180834
1.53526,-6.890844,6.791403,-0.254115,-0.051169,-0.118569,0.497543,0.434178,-0.867173,-0.814975682,-0.158471513,1.981586787
1.478239,-6.949957,6.760682,-0.266451,-0.055631,-0.090841,0.497543,0.434178,-0.867173,-0.816297665,-0.158963819,1.981479432
1.450318,-7.010686,6.748634,-0.292,-0.053387,-0.074387,0.492109,0.437143,-0.862251,-0.817770061,-0.159375874,1.98142133
1.453761,-6.999584,6.686531,-0.328003,-0.051382,-0.085434,0.492109,0.437143,-0.862251,-0.819400426,-0.159834215,1.981318425
1.534647,-7.005062,6.71406,-0.372249,-0.050177,-0.096715,0.496343,0.454551,-0.879806,-0.821259953,-0.160317165,1.981174855
1.555904,-7.008268,6.698664,-0.400423,-0.036304,-0.10307,0.496343,0.454551,-0.879806,-0.823233938,-0.160789172,1.98095688
1.579582,-6.966125,6.656219,-0.407271,-0.016409,-0.092118,0.495701,0.44433,-0.874862,-0.825251034,-0.161141327,1.980720755
1.537543,-6.948933,6.622718,-0.370859,0.016049,-0.079759,0.495701,0.44433,-0.874862,-0.827058881,-0.161351081,1.980389648
1.527798,-6.969907,6.613318,-0.304645,0.046146,-0.06153,0.495876,0.457651,-0.869393,-0.82854229,-0.161379739,1.980005728
1.528704,-6.981606,6.626733,-0.224134,0.065807,-0.037343,0.495876,0.457651,-0.869393,-0.829610048,-0.161265996,1.979634549
1.521912,-6.989182,6.735203,-0.142703,0.066676,-0.0169,0.497899,0.45273,-0.861586,-0.83029591,-0.161061566,1.979328173
1.598042,-7.014331,6.764337,-0.076369,0.05958,0.004977,0.497899,0.45273,-0.861586,-0.83065187,-0.160813118,1.97912472
1.684963,-7.078867,6.851344,-0.041745,0.061733,0.022209,0.495695,0.45242,-0.86951,-0.830857191,-0.160481418,1.97898553
1.648042,-7.14952,6.925468,-0.045653,0.048193,0.027199,0.495695,0.45242,-0.86951,-0.831078603,-0.160189389,1.978900445
1.584534,-7.180652,6.933178,-0.059275,0.036159,0.022451,0.495646,0.455157,-0.866862,-0.831386933,-0.159943001,1.978850267
1.622039,-7.10926,6.833015,-0.061166,0.01985,0.016954,0.495646,0.455157,-0.866862,-0.831697235,-0.159784351,1.978836147
1.667727,-7.05158,6.76591,-0.054251,0.00584,0.019655,0.49476,0.458622,-0.848683,-0.831996996,-0.159650222,1.978864998
1.627531,-7.012182,6.75919,-0.043213,-0.020364,0.019379,0.49476,0.458622,-0.848683,-0.832242773,-0.159618003,1.979009616
1.505241,-7.01394,6.69514,-0.055268,-0.048538,0.027374,0.503096,0.455361,-0.858625,-0.83258395,-0.159638476,1.979284191
1.459919,-7.060338,6.524448,-0.071248,-0.066084,0.029734,0.503096,0.455361,-0.858625,-0.83300276,-0.159721658,1.979635369
1.502053,-7.090673,6.313091,-0.092036,-0.073317,0.037534,0.484457,0.455977,-0.854548,-0.833547966,-0.159787859,1.98004889
1.560691,-7.12708,6.178854,-0.10303,-0.070736,0.041382,0.484457,0.455977,-0.854548,-0.834134833,-0.159843168,1.980457262
1.640115,-7.148259,6.11587,-0.103499,-0.055846,0.045048,0.502768,0.45834,-0.8508,-0.834731212,-0.159822067,1.980808824
1.610669,-7.234851,6.107293,-0.132456,-0.037276,0.050171,0.502768,0.45834,-0.8508,-0.835449974,-0.159732026,1.9811215
1.595019,-7.321408,6.13634,-0.164779,-0.015043,0.048496,0.503047,0.458098,-0.855978,-0.836330127,-0.159561036,1.981344274
1.743612,-7.177948,6.049574,-0.128874,-0.035371,0.069845,0.503047,0.458098,-0.855978,-0.837040336,-0.159391093,1.981716361
1.536894,-7.363697,6.239391,-0.129341,-0.048747,0.084895,0.497669,0.450236,-0.859056,-0.83778273,-0.159197728,1.982209696
1.366412,-7.431766,6.299195,-0.157784,-0.042736,0.076558,0.497669,0.450236,-0.859056,-0.838645307,-0.159026877,1.982631978
1.263921,-7.377299,6.389314,-0.152066,-0.029634,0.078953,0.48782,0.46067,-0.864628,-0.839486521,-0.158790961,1.983032706
1.280057,-7.373937,6.534758,-0.148656,-0.025609,0.081652,0.48782,0.46067,-0.864628,-0.840295726,-0.158543281,1.983407306
1.356753,-7.296973,6.410172,-0.118082,-0.015798,0.083184,0.490819,0.4549,-0.874943,-0.840960627,-0.158245004,1.983785554
1.376565,-7.269225,6.336483,-0.069919,-0.012918,0.085311,0.490819,0.4549,-0.874943,-0.841370273,-0.157940898,1.984124253
1.408377,-7.25572,6.355317,-0.043858,0.001245,0.077631,0.495221,0.463611,-0.853744,-0.841651114,-0.15760562,1.98437188
1.399966,-7.150428,6.359059,-0.016184,0.004436,0.065339,0.495221,0.463611,-0.853744,-0.841771018,-0.157318007,1.984577498
1.374907,-7.159735,6.397741,0.036664,0.000406,0.062089,0.503138,0.460714,-0.855919,-0.841641288,-0.157043432,1.984779624
1.333922,-7.18625,6.392841,0.106441,-0.004847,0.069387,0.503138,0.460714,-0.855919,-0.84115558,-0.156771719,1.985033989
1.337144,-7.184551,6.356553,0.2011,-0.01542,0.076955,0.496016,0.45753,-0.871981,-0.84022045,-0.156495137,1.985375969
1.347556,-7.131758,6.318629,0.308753,-0.029166,0.088212,0.496016,0.45753,-0.871981,-0.838747304,-0.156235048,1.985786121
1.372633,-7.112552,6.300139,0.409101,-0.051253,0.108142,0.503939,0.446543,-0.87951,-0.836809412,-0.155963387,1.986375257
1.409397,-7.128322,6.292208,0.502688,-0.069756,0.12667,0.503939,0.446543,-0.87951,-0.834410438,-0.155698359,1.987069305
1.403519,-7.140645,6.242859,0.589563,-0.086658,0.142978,0.497627,0.444883,-0.861762,-0.831609306,-0.15541921,1.9878805
1.409394,-7.149238,6.218207,0.671984,-0.093078,0.167818,0.497627,0.444883,-0.861762,-0.828398858,-0.15508491,1.988803622
1.38513,-7.128433,6.240303,0.75647,-0.092094,0.19101,0.498233,0.441661,-0.874764,-0.824791349,-0.154652714,1.989809177
1.2768,-7.079188,6.279551,0.851279,-0.092316,0.203607,0.498233,0.441661,-0.874764,-0.820702547,-0.154191284,1.990854961
1.17931,-6.982358,6.355186,0.972713,-0.08362,0.219451,0.500723,0.433639,-0.877371,-0.816023718,-0.153634349,1.99192532
1.182055,-6.929245,6.438627,1.115562,-0.071459,0.229959,0.500723,0.433639,-0.877371,-0.81061529,-0.15301528,1.992990215
1.243286,-6.842168,6.679134,1.23206,-0.052561,0.242183,0.502857,0.407064,-0.885564,-0.804633817,-0.152280444,1.994056333
1.273994,-6.902797,6.723767,1.318885,-0.054981,0.258888,0.502857,0.407064,-0.885564,-0.798214685,-0.151512708,1.995170307
1.346641,-6.883078,6.882648,1.385238,-0.058732,0.25784,0.495784,0.401144,-0.904273,-0.791478671,-0.150756876,1.99633151
1.351493,-6.802423,7.063309,1.426465,-0.054384,0.251529,0.495784,0.401144,-0.904273,-0.784517265,-0.150027973,1.997427176
1.226833,-6.721213,7.059521,1.542444,-0.067245,0.251881,0.505772,0.390589,-0.90129,-0.776996656,-0.149338743,1.998575777
1.145468,-6.61519,7.207034,1.692205,-0.080484,0.258772,0.505772,0.390589,-0.90129,-0.768724228,-0.148694454,1.99980058
1.149877,-6.533941,7.199997,1.869455,-0.095705,0.256968,0.495616,0.379733,-0.915096,-0.759585994,-0.148109332,2.00108715
1.127536,-6.476754,7.184732,2.072607,-0.108637,0.259294,0.495616,0.379733,-0.915096,-0.749426481,-0.147588142,2.002422903
1.0711,-6.362715,7.139088,2.303876,-0.137356,0.253413,0.494108,0.348707,-0.908031,-0.738135487,-0.147194064,2.003846395
1.134523,-6.186462,7.226753,2.507089,-0.162525,0.257114,0.494108,0.348707,-0.908031,-0.725829654,-0.146910465,2.005367362
1.177792,-6.091966,7.290392,2.674857,-0.159289,0.263317,0.498913,0.319342,-0.918714,-0.712700252,-0.146600669,2.006913533
1.13899,-6.087358,7.434057,2.799496,-0.162165,0.275459,0.498913,0.319342,-0.918714,-0.698942584,-0.146295655,2.008510719
1.174271,-6.093513,7.614802,2.871344,-0.164705,0.282847,0.495892,0.29549,-0.927164,-0.684844506,-0.145986016,2.010152412
1.261281,-6.07913,7.754891,2.847103,-0.162912,0.287016,0.495892,0.29549,-0.927164,-0.670855948,-0.14569198,2.011805291
1.240708,-6.068643,7.672638,2.794949,-0.151785,0.283682,0.490339,0.274307,-0.935712,-0.657134617,-0.145374156,2.013412409
1.242613,-5.957987,7.672209,2.714551,-0.132356,0.275289,0.490339,0.274307,-0.935712,-0.643788498,-0.145038948,2.014931998
1.233301,-5.892885,7.677144,2.623491,-0.098183,0.263467,0.502273,0.240035,-0.935686,-0.630889374,-0.144608287,2.016298801
1.19189,-5.737364,7.739681,2.537676,-0.082011,0.248741,0.502273,0.240035,-0.935686,-0.618390525,-0.144185446,2.017568895
1.213048,-5.651122,7.825747,2.399448,-0.049588,0.258449,0.483432,0.205797,-0.950489,-0.606588237,-0.143604391,2.018827696
1.093339,-5.696846,7.812449,2.325143,-0.031298,0.262095,0.483432,0.205797,-0.950489,-0.595139274,-0.14296464,2.020018186
1.128785,-5.555132,7.969521,2.242277,-0.011579,0.253811,0.504706,0.188948,-0.965115,-0.584105437,-0.142266072,2.021134726
1.151848,-5.412845,8.087408,2.117007,0.004203,0.264276,0.504706,0.188948,-0.965115,-0.573684875,-0.141497795,2.022250027
0.804148,-5.175665,8.076553,2.002954,0.007847,0.282608,0.495596,0.17402,-0.952993,-0.563857829,-0.140662829,2.023434792
1.011511,-5.155851,8.304829,1.871799,-0.01622,0.329463,0.495596,0.17402,-0.952993,-0.554710205,-0.139829975,2.024898548
1.398573,-5.234593,8.470612,1.860205,-0.041197,0.292012,0.49796,0.14994,-0.963717,-0.545620666,-0.13920143,2.026282856
1.591091,-5.107616,8.457014,1.861451,-0.035106,0.232927,0.49796,0.14994,-0.963717,-0.536473915,-0.138724675,2.027392799
1.489087,-4.986582,8.333761,1.838271,-0.00825,0.187369,0.499947,0.131576,-0.963969,-0.52741965,-0.138244552,2.028243071
1.38426,-4.883159,8.383736,1.778134,0.034024,0.173772,0.499947,0.131576,-0.963969,-0.518629976,-0.137635973,2.028928358
1.291019,-4.93781,8.399445,1.730358,0.066638,0.168934,0.507501,0.118216,-0.966379,-0.510078923,-0.136890089,2.029507982
1.241608,-4.907414,8.504857,1.708327,0.07925,0.15044,0.507501,0.118216,-0.966379,-0.501609657,-0.136151989,2.029989972
1.324255,-4.753632,8.532206,1.690715,0.075723,0.145641,0.496054,0.095009,-0.964944,-0.493240573,-0.135431656,2.030478525
1.378332,-4.660687,8.575515,1.675403,0.069249,0.150482,0.496054,0.095009,-0.964944,-0.484940132,-0.134745689,2.030996731
1.336101,-4.62739,8.585413,1.683397,0.073072,0.140709,0.508763,0.078926,-0.967098,-0.476606531,-0.134056546,2.0314679
1.299607,-4.566023,8.591413,1.683815,0.082634,0.133387,0.508763,0.078926,-0.967098,-0.468250484,-0.133358519,2.031889938
1.306789,-4.53314,8.62504,1.687664,0.095708,0.116664,0.500392,0.068745,-0.965215,-0.459875291,-0.132629948,2.032210241
1.270149,-4.456536,8.664078,1.695543,0.100537,0.10439,0.500392,0.068745,-0.965215,-0.451438977,-0.131922461,2.032472861
1.270444,-4.349455,8.76292,1.686454,0.105267,0.096388,0.504318,0.034754,-0.963071,-0.443056035,-0.131199912,2.032716736
1.26587,-4.220682,8.89385,1.67134,0.108103,0.083596,0.504318,0.034754,-0.963071,-0.434727425,-0.130506824,2.032880099
1.226685,-4.124664,9.049315,1.631622,0.095246,0.080289,0.506989,0.031964,-0.965561,-0.426613159,-0.129867405,2.03305725
1.044125,-4.053742,9.140503,1.573452,0.061634,0.091384,0.506989,0.031964,-0.965561,-0.4187923,-0.129372953,2.0333638
1.041689,-3.993111,9.283051,1.503729,0.015903,0.11562,0.495821,0.008514,-0.969305,-0.411360214,-0.129027884,2.033901955
1.232448,-3.939577,9.370047,1.448213,-0.046873,0.109558,0.495821,0.008514,-0.969305,-0.404205059,-0.129000011,2.034516974
1.37942,-3.719145,9.361286,1.395297,-0.077869,0.08598,0.496665,-0.000303,-0.99019,-0.397321652,-0.129151854,2.035102148
1.461744,-3.476147,9.164524,1.326499,-0.072504,0.07538,0.496665,-0.000303,-0.99019,-0.390761131,-0.129316299,2.035608015
1.532066,-3.31721,9.090435,1.267657,-0.024247,0.068216,0.502272,-0.020055,-0.96171,-0.384491853,-0.129261095,2.035992179
1.512383,-3.215273,9.123964,1.245635,0.024079,0.074114,0.502272,-0.020055,-0.96171,-0.378311221,-0.128986013,2.03630873
1.444301,-3.111603,9.107939,1.250129,0.060358,0.097286,0.50532,-0.028562,-0.974672,-0.372126749,-0.128488734,2.036671566
1.350749,-3.053791,9.069345,1.280239,0.060744,0.131966,0.50532,-0.028562,-0.974672,-0.365799508,-0.127942253,2.037196858
1.32705,-3.04882,8.960429,1.339241,0.062515,0.171996,0.504636,-0.044135,-0.972434,-0.359214047,-0.127307023,2.037917592
1.311623,-3.025836,8.82202,1.422725,0.075006,0.208861,0.504636,-0.044135,-0.972434,-0.352217438,-0.126566741,2.038788338
1.233931,-2.942903,8.691278,1.525537,0.087306,0.24477,0.509379,-0.054584,-0.969765,-0.344738489,-0.125700936,2.03980871
1.119796,-2.865166,8.690548,1.649524,0.104826,0.278906,0.509379,-0.054584,-0.969765,-0.336643038,-0.124716185,2.040972862
0.962621,-2.769643,8.687818,1.771713,0.12472,0.330986,0.50889,-0.081105,-0.978115,-0.327975886,-0.123549188,2.042373996
0.617785,-2.544346,8.752432,1.879274,0.149365,0.414521,0.50889,-0.081105,-0.978115,-0.318801664,-0.122157916,2.044131299
0.725512,-2.52337,8.993365,1.99106,0.16708,0.525244,0.504607,-0.095776,-0.957913,-0.309141018,-0.120515037,2.046404364
1.085976,-2.516444,9.0934,2.145399,0.211632,0.576206,0.504607,-0.095776,-0.957913,-0.298715027,-0.118618962,2.048870969
1.136929,-2.420201,9.074131,2.266716,0.280164,0.612451,0.517189,-0.127917,-0.968184,-0.287701018,-0.11635581,2.051439851
1.114359,-2.465989,9.16796,2.338022,0.332345,0.645167,0.517189,-0.127917,-0.968184,-0.276324433,-0.113838189,2.054110712
1.100214,-2.499037,9.264173,2.386552,0.371545,0.648057,0.515577,-0.145379,-0.950472,-0.264709611,-0.111145651,2.056766109
1.183373,-2.55632,9.360217,2.381277,0.405895,0.648244,0.515577,-0.145379,-0.950472,-0.253099938,-0.108330574,2.059413391
1.133835,-2.51853,9.506019,2.367009,0.426577,0.641699,0.511308,-0.176229,-0.940976,-0.241563812,-0.105440831,2.062043289
1.108484,-2.475605,9.655457,2.32172,0.432464,0.646691,0.511308,-0.176229,-0.940976,-0.230239308,-0.102559675,2.064714552
1.191283,-2.488279,9.721215,2.265718,0.407563,0.637889,0.521212,-0.19749,-0.943403,-0.219201475,-0.099826698,2.067400998
1.111864,-2.395835,9.684837,2.190737,0.394349,0.616744,0.521212,-0.19749,-0.943403,-0.208512952,-0.097222805,2.070027528
1.031334,-2.368554,9.659949,2.112083,0.384921,0.587756,0.527984,-0.220949,-0.93828,-0.198213341,-0.094709076,2.072545324
0.910432,-2.27742,9.672402,2.041153,0.376985,0.562897,0.527984,-0.220949,-0.93828,-0.188241241,-0.092296559,2.074975347
0.934341,-2.200209,9.597022,1.987161,0.35982,0.546011,0.522578,-0.250344,-0.95477,-0.178541901,-0.089994468,2.077378526
0.960627,-2.100337,9.482582,1.964827,0.369259,0.539223,0.522578,-0.250344,-0.95477,-0.168934435,-0.087688067,2.07974392
1.006557,-1.95975,9.551227,1.973386,0.375127,0.530094,0.519626,-0.277419,-0.919171,-0.159288869,-0.085369675,2.082100901
1.021261,-1.780846,9.497973,2.011447,0.358787,0.507056,0.519626,-0.277419,-0.919171,-0.149428453,-0.083185814,2.084358345
0.912394,-1.673479,9.454453,2.028631,0.355635,0.496822,0.527501,-0.285669,-0.924052,-0.139487699,-0.081034572,2.0865842
0.852359,-1.604265,9.391305,2.024637,0.368325,0.494195,0.527501,-0.285669,-0.924052,-0.129549353,-0.078857134,2.088813527
0.814999,-1.515555,9.534166,2.022001,0.382796,0.490883,0.52824,-0.311031,-0.906358,-0.119631673,-0.076619237,2.091041895
0.81324,-1.378869,9.536186,2.008664,0.383869,0.475879,0.52824,-0.311031,-0.906358,-0.109758969,-0.074419545,2.093213137
0.828069,-1.242101,9.537048,2.003331,0.391702,0.457196,0.538751,-0.335514,-0.921788,-0.099915308,-0.072199241,2.09531174
0.765428,-1.017932,9.557272,2.017035,0.391613,0.446418,0.538751,-0.335514,-0.921788,-0.089983525,-0.070018137,2.097374702
0.800946,-0.895836,9.662925,2.029727,0.385906,0.430322,0.528385,-0.34935,-0.886368,-0.079992663,-0.067880072,2.099383804
0.777184,-0.787647,9.867845,2.012467,0.356842,0.410137,0.528385,-0.34935,-0.886368,-0.070066639,-0.065927362,2.101321085
0.671018,-0.739094,10.021752,1.966206,0.31902,0.387369,0.535387,-0.370315,-0.883776,-0.060375712,-0.064177058,2.103176162
0.600328,-0.670091,10.105111,1.893623,0.277117,0.361685,0.535387,-0.370315,-0.883776,-0.051025595,-0.062673544,2.104930306
0.567163,-0.659164,10.236391,1.790685,0.237015,0.343386,0.547266,-0.39376,-0.87575,-0.042196163,-0.061377811,2.106615143
0.550792,-0.655117,10.26166,1.658368,0.185948,0.321229,0.547266,-0.39376,-0.87575,-0.034008174,-0.060368556,2.108210147
0.557751,-0.635015,10.351749,1.51441,0.133357,0.296339,0.538944,-0.406678,-0.876514,-0.026544829,-0.059625499,2.10970017
0.638896,-0.587783,10.324322,1.399874,0.084307,0.257025,0.538944,-0.406678,-0.876514,-0.019629447,-0.059155744,2.111000284
0.687885,-0.444157,10.252378,1.31725,0.043725,0.208337,0.535309,-0.419219,-0.866608,-0.013125527,-0.058888638,2.112068671
0.678758,-0.362599,10.304232,1.266593,0.010756,0.159516,0.535309,-0.419219,-0.866608,-0.006847698,-0.058808528,2.11289011
0.644434,-0.302994,10.301912,1.229398,-0.033199,0.125961,0.534346,-0.43455,-0.859193,-0.000758904,-0.058940859,2.113554941
0.678709,-0.314817,10.290172,1.199789,-0.085634,0.097759,0.534346,-0.43455,-0.859193,0.005202933,-0.059352006,2.114066934
0.662512,-0.276356,10.235526,1.160728,-0.142426,0.070086,0.533418,-0.436438,-0.843719,0.010964791,-0.060036402,2.114432755
0.738212,-0.265705,10.216162,1.109141,-0.182905,0.043684,0.533418,-0.436438,-0.843719,0.016489773,-0.060935998,2.114662458
0.695,-0.204868,10.152643,1.061823,-0.230483,0.024285,0.533153,-0.452375,-0.849247,0.021771456,-0.062060008,2.11479135
0.772852,-0.145428,10.086003,1.01095,-0.279882,0.015952,0.533153,-0.452375,-0.849247,0.026815023,-0.063443356,2.114860867
0.750406,0.021433,10.110421,0.974056,-0.323276,0.008049,0.527035,-0.464983,-0.842088,0.031664283,-0.065029739,2.114891463
0.84541,0.070934,10.158534,0.94928,-0.362134,0.010856,0.527035,-0.464983,-0.842088,0.036402767,-0.066823851,2.114907956
0.72631,0.157216,10.203602,0.916111,-0.417729,0.009849,0.521517,-0.472723,-0.842577,0.040963838,-0.068882695,2.11491204
0.95837,0.169661,10.127857,0.881339,-0.457097,0.020985,0.521517,-0.472723,-0.842577,0.04536158,-0.071153439,2.114942304
1.364005,0.118586,10.209781,0.869372,-0.471966,-0.022259,0.518154,-0.477416,-0.832496,0.049702792,-0.073475705,2.11474866
1.120085,0.300835,10.21066,0.844151,-0.56009,-0.067446,0.518154,-0.477416,-0.832496,0.05395103,-0.076237987,2.114289638
1.011525,0.42566,10.308881,0.829819,-0.657744,-0.099533,0.513746,-0.478037,-0.848343,0.058131183,-0.079464718,2.113626168
0.866295,0.537667,10.395978,0.829387,-0.805232,-0.133624,0.513746,-0.478037,-0.848343,0.062343519,-0.083426617,2.112738214
1.098015,0.599914,10.389342,0.859601,-0.919391,-0.173614,0.512734,-0.490631,-0.83828,0.066719114,-0.087929097,2.111598985
1.298845,0.641507,10.435566,0.925209,-1.008976,-0.230299,0.512734,-0.490631,-0.83828,0.071471805,-0.09286592,2.110120306
1.374297,0.641817,10.5507,0.997237,-1.097027,-0.295884,0.505005,-0.490592,-0.841341,0.076615606,-0.098198305,2.10825036
1.468826,0.620438,10.556542,1.047904,-1.204976,-0.355233,0.505005,-0.490592,-0.841341,0.082073916,-0.104047167,2.106015412
1.553559,0.533023,10.621036,1.070779,-1.322297,-0.423115,0.491298,-0.503283,-0.83983,0.087692046,-0.110427169,2.103365879
1.625872,0.449713,10.644088,1.072484,-1.455666,-0.511537,0.491298,-0.503283,-0.83983,0.09341158,-0.117428385,2.100164543
1.608348,0.335069,10.64669,1.050109,-1.594709,-0.597899,0.49194,-0.493063,-0.844774,0.099094235,-0.125050905,2.096399185
1.690879,0.261477,10.559561,1.011783,-1.742154,-0.692478,0.49194,-0.493063,-0.844774,0.104705733,-0.13334857,2.092057432
1.632644,0.355963,10.448655,0.941768,-1.891678,-0.772284,0.467651,-0.508156,-0.84395,0.110063302,-0.142311119,2.087195362
1.637444,0.439407,10.368063,0.840981,-2.053667,-0.827157,0.467651,-0.508156,-0.84395,0.115037859,-0.152034527,2.08190038
1.655166,0.469055,10.179106,0.701434,-2.186308,-0.883116,0.451922,-0.515925,-0.850246,0.119417486,-0.16234728,2.076209941
1.600811,0.500686,10.111227,0.525717,-2.321776,-0.929577,0.451922,-0.515925,-0.850246,0.123054474,-0.173293624,2.070132108
1.551979,0.636167,9.95282,0.332048,-2.446591,-0.937797,0.438989,-0.510427,-0.850915,0.125805359,-0.184823396,2.063894787
1.416497,0.865239,9.551203,0.125914,-2.51106,-0.794203,0.438989,-0.510427,-0.850915,0.127490318,-0.196761488,2.058293448
1.450309,0.729303,9.278575,-0.0591,-2.468093,-0.57384,0.424488,-0.510712,-0.921851,0.128075527,-0.208609853,2.053796779
1.459173,0.483233,9.070742,-0.212137,-2.340541,-0.42588,0.424488,-0.510712,-0.921851,0.127786954,-0.219930185,2.050133314
1.72164,0.290503,8.781537,-0.335686,-2.111954,-0.413442,0.399153,-0.49795,-0.884202,0.126856658,-0.23011546,2.046686427
1.878614,0.345147,8.919616,-0.427322,-1.877224,-0.462389,0.399153,-0.49795,-0.884202,0.125537695,-0.239120839,2.043139672
2.081174,0.455203,9.031493,-0.502034,-1.690112,-0.500315,0.388571,-0.500352,-0.884889,0.123875146,-0.247167508,2.039546893
2.188809,0.551521,9.130054,-0.574625,-1.533466,-0.510414,0.388571,-0.500352,-0.884889,0.121878349,-0.254449025,2.035988252
2.201451,0.598597,9.209334,-0.627748,-1.401827,-0.498166,0.379141,-0.490282,-0.898227,0.119584531,-0.261080424,2.032594126
2.191054,0.669406,9.277492,-0.668153,-1.276027,-0.48583,0.379141,-0.490282,-0.898227,0.117086022,-0.267113838,2.02934118
2.278264,0.75084,9.350534,-0.683188,-1.158315,-0.47044,0.367535,-0.482774,-0.968831,0.114471168,-0.272568989,2.026234231
2.285254,0.808373,9.43219,-0.675884,-1.056275,-0.453831,0.367535,-0.482774,-0.968831,0.11188239,-0.277544838,2.023297906
2.382797,0.889221,9.459354,-0.662724,-0.956593,-0.448058,0.364228,-0.47451,-0.903997,0.10932995,-0.28202393,2.020479686
2.474092,0.946213,9.480929,-0.658533,-0.868919,-0.443673,0.364228,-0.47451,-0.903997,0.106803759,-0.286088315,2.017720145
2.454179,0.95713,9.429024,-0.655124,-0.772877,-0.447697,0.354735,-0.469307,-0.966736,0.104277132,-0.289668703,2.014999769
2.450489,0.975527,9.50189,-0.631713,-0.691759,-0.440729,0.354735,-0.469307,-0.966736,0.101868018,-0.292866688,2.012365996
2.465614,0.987388,9.579338,-0.603841,-0.628463,-0.433231,0.354477,-0.46955,-0.914863,0.099567324,-0.295746936,2.009851621
2.516972,1.026149,9.562729,-0.561082,-0.584382,-0.434792,0.354477,-0.46955,-0.914863,0.097497729,-0.298424971,2.00731454
2.556888,1.055421,9.483901,-0.513551,-0.560256,-0.436227,0.348311,-0.449313,-0.932988,0.095653299,-0.300975893,2.004786744
2.6192,1.079406,9.417995,-0.467965,-0.552425,-0.434089,0.348311,-0.449313,-0.932988,0.094054088,-0.303504091,2.002275475
2.676053,1.035167,9.339025,-0.413893,-0.54526,-0.41648,0.348311,-0.449313,-0.932988,0.092685767,-0.305996858,1.999875612
2.686372,1.009012,9.269083,-0.345179,-0.54062,-0.398904,0.348311,-0.449313,-0.932988,0.09165419,-0.308488893,1.997557011
2.76191,1.00015,9.251616,-0.265722,-0.534739,-0.384793,0.340673,-0.446658,-0.93599,0.090985728,-0.310948237,1.99533538
2.859853,0.975168,9.227226,-0.194298,-0.533192,-0.363714,0.340673,-0.446658,-0.93599,0.090661882,-0.313422225,1.993204315
2.887399,0.899923,9.185033,-0.137526,-0.532125,-0.347941,0.340164,-0.44891,-0.928282,0.090585437,-0.315886474,1.991183729
2.953956,0.87711,9.235266,-0.116159,-0.532279,-0.346621,0.340164,-0.44891,-0.928282,0.090635127,-0.318364075,1.989139808
3.011717,0.912688,9.290383,-0.131465,-0.546045,-0.344738,0.333705,-0.436035,-0.993278,0.090596031,-0.320901051,1.987073581
3.009938,0.884292,9.309786,-0.166498,-0.557139,-0.337964,0.333705,-0.436035,-0.993278,0.090394219,-0.323506567,1.985060116
3.040323,0.915407,9.315547,-0.209478,-0.563871,-0.3311,0.340855,-0.441427,-0.935873,0.089956106,-0.326137722,1.983099901
3.047217,0.84531,9.345526,-0.245956,-0.572799,-0.324303,0.340855,-0.441427,-0.935873,0.089346759,-0.328828951,1.981149635
3.048572,0.838206,9.345355,-0.283444,-0.592334,-0.312022,0.323117,-0.430347,-0.988612,0.088520467,-0.33161373,1.979247487
3.112635,0.750312,9.275469,-0.338983,-0.615493,-0.298209,0.323117,-0.430347,-0.988612,0.087417471,-0.334532183,1.977415937
3.112695,0.716179,9.315152,-0.388603,-0.640301,-0.289023,0.325893,-0.422918,-0.938996,0.086042308,-0.33756918,1.975633868
3.135392,0.691319,9.367301,-0.445066,-0.661629,-0.294117,0.325893,-0.422918,-0.938996,0.084417598,-0.340723933,1.973807712
3.154834,0.708142,9.303967,-0.4897,-0.678969,-0.286023,0.31582,-0.423068,-0.94739,0.082545888,-0.343959897,1.972043498
3.14815,0.668456,9.287538,-0.52864,-0.699397,-0.275459,0.31582,-0.423068,-0.94739,0.080483729,-0.34731683,1.970308064
3.165724,0.674945,9.280922,-0.58079,-0.732419,-0.268492,0.310666,-0.420346,-0.947646,0.078140344,-0.350833007,1.968628253
3.129868,0.71491,9.268595,-0.638352,-0.779472,-0.248535,0.310666,-0.420346,-0.947646,0.075498822,-0.354607091,1.967015464
3.140808,0.79664,9.293776,-0.708121,-0.823936,-0.224845,0.29855,-0.415089,-1.010543,0.072456729,-0.358605066,1.965524411
3.220869,0.776446,9.322944,-0.793478,-0.879285,-0.189345,0.29855,-0.415089,-1.010543,0.068946626,-0.36290706,1.964209322
3.187842,0.804649,9.278548,-0.904331,-0.93652,-0.155825,0.291519,-0.391873,-0.963793,0.064809095,-0.367499634,1.963069395
3.10497,0.856998,9.190588,-0.999585,-0.971289,-0.131894,0.291519,-0.391873,-0.963793,0.060167599,-0.372288645,1.962064329
3.145915,0.929853,9.284048,-1.080795,-1.019085,-0.099543,0.287362,-0.384161,-1.026159,0.055041425,-0.377319838,1.96122479
3.28724,0.846869,9.250257,-1.171485,-1.088135,-0.074681,0.287362,-0.384161,-1.026159,0.049429823,-0.382716573,1.960543396
3.326204,0.788793,9.014029,-1.227307,-1.153802,-0.057361,0.277241,-0.381574,-1.031907,0.043485386,-0.388437573,1.959981696
3.453566,0.689396,8.866383,-1.252951,-1.216571,-0.057682,0.277241,-0.381574,-1.031907,0.037424291,-0.394486468,1.959429736
3.564534,0.590726,8.672116,-1.248937,-1.263253,-0.062936,0.262649,-0.360692,-1.040148,0.031369671,-0.400759865,1.958876484
3.671894,0.503219,8.418235,-1.222305,-1.289084,-0.088807,0.262649,-0.360692,-1.040148,0.025509115,-0.407172451,1.958220309
3.689783,0.552963,8.283205,-1.15596,-1.292818,-0.11588,0.25492,-0.360653,-1.043209,0.020012198,-0.413592229,1.95747727
3.709529,0.510148,8.197588,-1.127264,-1.304161,-0.118138,0.25492,-0.360653,-1.043209,0.014670075,-0.420083931,1.956733498
3.622673,0.556175,8.137733,-1.068586,-1.299321,-0.132392,0.237475,-0.342212,-1.049077,0.009627432,-0.426542804,1.955957227
3.678457,0.533572,8.28984,-1.00332,-1.296441,-0.137742,0.237475,-0.342212,-1.049077,0.004930453,-0.433001712,1.955173487
3.688605,0.527344,8.31126,-0.9332,-1.297406,-0.157946,0.224732,-0.339572,-1.054982,0.000607532,-0.439456519,1.954334035
3.905111,0.581518,8.412493,-0.850532,-1.28539,-0.164597,0.224732,-0.339572,-1.054982,-0.003277032,-0.44586626,1.953458491
3.983353,0.511705,8.201319,-0.759636,-1.246608,-0.177842,0.205034,-0.318704,-1.066126,-0.006695749,-0.452074382,1.952533099
4.093778,0.439493,8.353221,-0.664465,-1.175025,-0.202906,0.205034,-0.318704,-1.066126,-0.009563361,-0.457939075,1.95148262
4.117168,0.475504,8.48963,-0.619626,-1.110249,-0.195504,0.205005,-0.316453,-1.016784,-0.012240174,-0.463470462,1.95050815
4.256265,0.318624,8.593841,-0.562028,-1.058902,-0.1985,0.205005,-0.316453,-1.016784,-0.014605305,-0.468759213,1.949502561
4.286688,0.310153,8.509415,-0.519825,-0.977562,-0.201585,0.187268,-0.305373,-1.069523,-0.016764401,-0.473632838,1.948482852
4.272474,0.169677,8.705951,-0.485742,-0.890646,-0.194146,0.187268,-0.305373,-1.069523,-0.018752436,-0.4780839,1.947505746
4.586564,0.064714,8.892607,-0.384935,-0.86162,-0.196089,0.195227,-0.302917,-1.068993,-0.020244833,-0.482380903,1.946518483
4.599325,-0.122404,8.892579,-0.319642,-0.791653,-0.22299,0.195227,-0.302917,-1.068993,-0.021318787,-0.486342715,1.9453777
4.678703,-0.257912,8.949002,-0.249142,-0.729413,-0.256142,0.16886,-0.302263,-1.067976,-0.021960877,-0.489986353,1.944063362
4.655117,-0.197024,8.988413,-0.288605,-0.667926,-0.256899,0.16886,-0.302263,-1.067976,-0.02277537,-0.493335065,1.942717311
4.703816,-0.328164,9.35869,-0.272997,-0.659959,-0.261754,0.172124,-0.292096,-1.072763,-0.023510363,-0.496634751,1.94134145
4.793005,-0.357435,9.301052,-0.264824,-0.669782,-0.279504,0.172124,-0.292096,-1.072763,-0.024137041,-0.499997164,1.939867728
4.79616,-0.402309,9.267864,-0.304556,-0.661028,-0.272655,0.167297,-0.292353,-1.080843,-0.024992096,-0.503304949,1.938437901
4.868246,-0.447676,9.142806,-0.310637,-0.67361,-0.269435,0.167297,-0.292353,-1.080843,-0.025867693,-0.506687276,1.937023015
4.820135,-0.397955,8.982285,-0.33861,-0.68197,-0.260411,0.166928,-0.294726,-1.075724,-0.02692086,-0.510100007,1.935679338
4.884337,-0.476495,8.969436,-0.320293,-0.687751,-0.266399,0.166928,-0.294726,-1.075724,-0.027846967,-0.51355501,1.93428625
4.899497,-0.455584,8.891587,-0.315072,-0.713871,-0.259839,0.14144,-0.289446,-1.087534,-0.028779479,-0.517129219,1.932958211
4.899293,-0.460751,8.692539,-0.302548,-0.727072,-0.238985,0.14144,-0.289446,-1.087534,-0.029690629,-0.520778966,1.931731261
4.951769,-0.56419,8.711376,-0.291386,-0.744735,-0.230798,0.154044,-0.291965,-1.07904,-0.030583557,-0.524505245,1.930576795
4.926746,-0.542792,8.719372,-0.273192,-0.79245,-0.238057,0.154044,-0.291965,-1.07904,-0.031349495,-0.528483446,1.929368887
4.958033,-0.578927,8.665056,-0.254362,-0.842975,-0.24582,0.133376,-0.278338,-1.077416,-0.032015304,-0.532705102,1.92813384
4.999187,-0.552419,8.644855,-0.24803,-0.888089,-0.268561,0.133376,-0.278338,-1.077416,-0.032565502,-0.537167544,1.92676681
5.11622,-0.540433,8.58851,-0.232414,-0.909308,-0.295593,0.123074,-0.280983,-1.083281,-0.032969039,-0.54172961,1.925264587
5.214702,-0.536722,8.56228,-0.218811,-0.911317,-0.31335,0.123074,-0.280983,-1.083281,-0.03322775,-0.546316477,1.923637224
5.26991,-0.528435,8.625165,-0.227245,-0.928241,-0.317766,0.115987,-0.270723,-1.091285,-0.033525503,-0.550978428,1.921984623
5.307526,-0.503196,8.565033,-0.271051,-0.946553,-0.307109,0.115987,-0.270723,-1.091285,-0.034052435,-0.555741277,1.920395326
5.360644,-0.544531,8.400472,-0.308242,-0.945568,-0.303685,0.113015,-0.273529,-1.039628,-0.034785125,-0.560487859,1.918853362
5.392647,-0.577756,8.312057,-0.333775,-0.928904,-0.306846,0.113015,-0.273529,-1.039628,-0.035611015,-0.565164348,1.917260469
5.340455,-0.56327,8.351702,-0.345117,-0.919535,-0.311661,0.095514,-0.268044,-1.10025,-0.036487834,-0.569785336,1.915644677
5.362172,-0.607547,8.358438,-0.328112,-0.942777,-0.315652,0.095514,-0.268044,-1.10025,-0.037246075,-0.574535025,1.914002269
5.296913,-0.578869,8.199463,-0.311975,-0.965287,-0.319674,0.094628,-0.26458,-1.08207,-0.037923089,-0.579388107,1.912351047
5.323689,-0.635287,8.166686,-0.279498,-0.979667,-0.331885,0.094628,-0.26458,-1.08207,-0.038374466,-0.584326972,1.91061687
5.350296,-0.678309,8.147758,-0.253177,-0.992696,-0.349947,0.077197,-0.262318,-1.098644,-0.038643893,-0.589324079,1.908787206
5.42486,-0.667945,8.16337,-0.231179,-0.990464,-0.367083,0.077197,-0.262318,-1.098644,-0.038717807,-0.594324449,1.906835281
5.428087,-0.609569,8.190804,-0.199981,-0.987094,-0.372309,0.079122,-0.261765,-1.085544,-0.038623088,-0.599298099,1.904859794
5.452029,-0.610895,8.227054,-0.181204,-0.999876,-0.365316,0.079122,-0.261765,-1.085544,-0.038430247,-0.604344912,1.902906543
5.351403,-0.625792,8.273191,-0.184383,-1.034043,-0.362449,0.066929,-0.25152,-1.09645,-0.038272905,-0.609551389,1.900968651
5.433563,-0.658508,8.179626,-0.20495,-1.070679,-0.368957,0.066929,-0.25152,-1.09645,-0.038169529,-0.614952155,1.898993618
5.486177,-0.641163,8.061439,-0.208168,-1.081027,-0.388123,0.045724,-0.261678,-1.10053,-0.038019448,-0.620396503,1.89692795
5.511488,-0.636694,8.030347,-0.194636,-1.087082,-0.399166,0.045724,-0.261678,-1.10053,-0.037730439,-0.625884379,1.894753234
5.507548,-0.582116,8.006751,-0.173457,-1.103746,-0.400479,0.043597,-0.243193,-1.09769,-0.037335384,-0.63144521,1.892554904
5.588895,-0.520842,7.980976,-0.123382,-1.119668,-0.410211,0.043597,-0.243193,-1.09769,-0.03662027,-0.637096361,1.890295364
5.641068,-0.445337,7.90608,-0.085226,-1.126773,-0.427223,0.026939,-0.252851,-1.088511,-0.035650564,-0.642773204,1.887943585
5.645678,-0.31565,7.943553,-0.04992,-1.115329,-0.430947,0.026939,-0.252851,-1.088511,-0.034449306,-0.648402784,1.885520613
5.588235,-0.265958,7.806203,-0.053095,-1.117327,-0.409798,0.015032,-0.250938,-1.109949,-0.033341126,-0.654025713,1.883226848
5.638978,-0.180809,7.671095,-0.052128,-1.100745,-0.394801,0.015032,-0.250938,-1.109949,-0.032244239,-0.659572093,1.88099211
5.655288,-0.175164,7.539753,-0.066474,-1.074364,-0.391478,0.013965,-0.252705,-1.091886,-0.031227183,-0.664973173,1.878777426
5.593227,-0.087797,7.544868,-0.075248,-1.027538,-0.388795,0.013965,-0.252705,-1.091886,-0.030221035,-0.670149107,1.876533176
5.635546,-0.035888,7.691367,-0.09473,-0.996878,-0.389557,-0.003606,-0.250322,-1.105871,-0.029305766,-0.675159356,1.874278558
5.699903,0.106363,7.704991,-0.137041,-0.962922,-0.379162,-0.003606,-0.250322,-1.105871,-0.02860355,-0.680007795,1.872054362
5.754622,0.21864,7.594925,-0.192901,-0.922424,-0.332036,-0.015116,-0.254613,-1.091084,-0.028370217,-0.684634682,1.870149474
5.815988,0.191721,7.554504,-0.255526,-0.849467,-0.281216,-0.015116,-0.254613,-1.091084,-0.028620323,-0.688901334,1.868517905
5.842177,0.146425,7.57358,-0.307756,-0.794681,-0.252652,-0.020089,-0.246659,-1.091223,-0.029254558,-0.692879621,1.867075442
5.900453,0.120669,7.360022,-0.347637,-0.73934,-0.214544,-0.020089,-0.246659,-1.091223,-0.030216759,-0.696587523,1.865852402
6.001742,0.092838,7.208431,-0.390444,-0.662555,-0.133813,-0.023088,-0.240889,-1.080909,-0.031738564,-0.699889495,1.865158127
6.034351,0.023242,7.238869,-0.41584,-0.582151,-0.062884,-0.023088,-0.240889,-1.080909,-0.033658881,-0.702789849,1.864901092
6.036911,-0.137523,7.247942,-0.441945,-0.52042,-0.014331,-0.037527,-0.236307,-1.102445,-0.035929608,-0.705362955,1.864968287
5.963597,-0.189604,7.141012,-0.46099,-0.439796,0.035808,-0.037527,-0.236307,-1.102445,-0.038483322,-0.707534529,1.865340776
6.034353,-0.257079,7.149927,-0.475819,-0.356953,0.094103,-0.031779,-0.226072,-1.104485,-0.041371564,-0.709269614,1.866082541
6.094409,-0.359799,7.158137,-0.498331,-0.26309,0.156028,-0.031779,-0.226072,-1.104485,-0.04460793,-0.710530946,1.867214457
6.215132,-0.46248,7.264335,-0.512309,-0.199252,0.183568,-0.034583,-0.23125,-1.104759,-0.048043542,-0.711452935,1.868539843
6.153054,-0.482834,7.359716,-0.512548,-0.150222,0.209835,-0.034583,-0.23125,-1.104759,-0.051568777,-0.712131344,1.870002692
6.096585,-0.493577,7.383624,-0.499577,-0.109455,0.243912,-0.026722,-0.223321,-1.098935,-0.055188434,-0.712582233,1.871695121
6.062385,-0.532806,7.405829,-0.483138,-0.067677,0.277652,-0.026722,-0.223321,-1.098935,-0.058844831,-0.712821273,1.87358191
6.027912,-0.534174,7.410498,-0.450439,-0.016898,0.296999,-0.042326,-0.215032,-1.097114,-0.062427243,-0.712784709,1.87559459
6.003732,-0.558008,7.401483,-0.403355,0.022456,0.311693,-0.042326,-0.215032,-1.097114,-0.065807912,-0.712552964,1.877669857
5.989674,-0.553075,7.398227,-0.361746,0.077637,0.332433,-0.039612,-0.21247,-1.096898,-0.0690703,-0.712022418,1.879874592
5.984706,-0.543713,7.364517,-0.331972,0.139319,0.354974,-0.039612,-0.21247,-1.096898,-0.072240378,-0.711182269,1.882176473
6.027051,-0.529982,7.350849,-0.317228,0.195495,0.392377,-0.03897,-0.202249,-1.101842,-0.075492434,-0.710031782,1.884696084
6.079573,-0.495058,7.376128,-0.30235,0.260568,0.431486,-0.03897,-0.202249,-1.101842,-0.078789956,-0.708546402,1.887427229
6.076444,-0.488895,7.44937,-0.283787,0.32602,0.478471,-0.033069,-0.208315,-1.117177,-0.082179998,-0.706697486,1.890441431
6.103237,-0.505015,7.498859,-0.255899,0.392413,0.523789,-0.033069,-0.208315,-1.117177,-0.085568207,-0.704502612,1.893682387
6.106955,-0.465353,7.473164,-0.226076,0.466406,0.557706,-0.032936,-0.200346,-1.114413,-0.088924424,-0.701904793,1.897097579
6.063684,-0.458754,7.413317,-0.200091,0.547693,0.605952,-0.032936,-0.200346,-1.114413,-0.092284708,-0.698882981,1.900748093
6.068421,-0.482156,7.394405,-0.16778,0.630103,0.643378,-0.02052,-0.200007,-1.100683,-0.095600346,-0.695412497,1.904583875
6.007984,-0.413748,7.423355,-0.147451,0.730923,0.68314,-0.02052,-0.200007,-1.100683,-0.098892894,-0.691422917,1.90857075
5.960227,-0.489235,7.417957,-0.120792,0.824227,0.718215,-0.017151,-0.203404,-1.116117,-0.102141302,-0.686929582,1.912714861
5.934318,-0.64123,7.466164,-0.088335,0.907332,0.742731,-0.017151,-0.203404,-1.116117,-0.105238547,-0.682012184,1.91690388
5.90443,-0.793862,7.52282,-0.056122,0.984826,0.752186,-0.007546,-0.200152,-1.097309,-0.108156128,-0.676682784,1.921083579
5.782354,-0.842512,7.427486,-0.027077,1.071642,0.764859,-0.007546,-0.200152,-1.097309,-0.110883066,-0.670917802,1.925225736
5.781497,-0.825262,7.369267,0.007771,1.176217,0.78011,0.003818,-0.187651,-1.104154,-0.113422225,-0.66460524,1.929343633
5.722687,-0.858656,7.397967,0.01939,1.265903,0.812651,0.003818,-0.187651,-1.104154,-0.115925866,-0.657831388,1.933567192
5.70594,-0.951064,7.457481,0.03511,1.350229,0.84335,0.01638,-0.195522,-1.098366,-0.118395612,-0.650600695,1.937890653
5.775101,-1.052138,7.681897,0.049313,1.430102,0.88584,0.01638,-0.195522,-1.098366,-0.120848255,-0.642951629,1.942358174
5.74929,-1.113315,7.912226,0.062113,1.477372,0.92548,0.034558,-0.201127,-1.097383,-0.123319625,-0.635022909,1.947005168
5.678664,-1.124534,8.084818,0.070145,1.512719,0.955245,0.034558,-0.201127,-1.097383,-0.125767188,-0.62690339,1.95173674
5.670764,-1.223184,8.121128,0.067527,1.532226,0.983009,0.048551,-0.196769,-1.109424,-0.128271056,-0.61864838,1.956574725
5.595016,-1.295285,8.135807,0.067748,1.560757,1.002931,0.048551,-0.196769,-1.109424,-0.130751379,-0.610241003,1.961452469
5.534799,-1.411442,8.257996,0.067986,1.585729,1.005348,0.064797,-0.194837,-1.116189,-0.133178034,-0.601686949,1.966269178
5.476602,-1.401539,8.189045,0.076043,1.605478,0.998441,0.064797,-0.194837,-1.116189,-0.135453107,-0.593041928,1.970977502
5.473252,-1.41593,8.133575,0.069132,1.61792,1.001766,0.081858,-0.199472,-1.094496,-0.137720377,-0.584312067,1.975655458
5.418005,-1.521371,8.106437,0.080213,1.639923,0.991376,0.081858,-0.199472,-1.094496,-0.139812557,-0.575484118,1.980192862
5.29844,-1.542996,8.185497,0.09232,1.64984,0.96737,0.090006,-0.199875,-1.099202,-0.141718579,-0.566604123,1.98454657
5.138859,-1.574756,8.223794,0.108548,1.625945,0.953269,0.090006,-0.199875,-1.099202,-0.143440557,-0.55785803,1.988781771
4.927438,-1.439736,8.053565,0.099177,1.601648,0.959772,0.110855,-0.20827,-1.100708,-0.145201246,-0.549208681,1.993054531
4.801502,-1.502237,7.80955,0.090093,1.600453,0.978514,0.110855,-0.20827,-1.100708,-0.146997854,-0.540557743,1.997376264
4.61261,-1.573018,7.747222,0.089925,1.604405,0.985318,0.118814,-0.205814,-1.100178,-0.1487746,-0.53186326,2.001707632
4.514296,-1.638101,7.84528,0.099633,1.586721,0.973289,0.118814,-0.205814,-1.100178,-0.150410166,-0.523271262,2.005932064
4.590679,-1.690475,7.92375,0.109908,1.542105,0.940705,0.131467,-0.21107,-1.094332,-0.151886139,-0.51490593,2.009995541
4.508378,-1.669179,7.921639,0.14487,1.495831,0.895047,0.131467,-0.21107,-1.094332,-0.153022803,-0.506812102,2.01378748
4.348297,-1.631803,7.760908,0.192514,1.464973,0.849734,0.152498,-0.214234,-1.095722,-0.153785739,-0.498889805,2.017337656
4.151307,-1.505166,7.936371,0.210373,1.430857,0.813622,0.152498,-0.214234,-1.095722,-0.154329392,-0.491174189,2.020681429
4.128481,-1.580911,8.128736,0.227981,1.360664,0.762856,0.16497,-0.224721,-1.089993,-0.154663465,-0.48383012,2.02381201
4.174192,-1.692419,8.2478,0.26568,1.285042,0.734518,0.16497,-0.224721,-1.089993,-0.154727606,-0.476893934,2.02681033
4.036516,-1.901467,8.173992,0.328266,1.203529,0.734889,0.1813,-0.212084,-1.091346,-0.154503453,-0.470348825,2.029854953
4.321854,-1.916653,8.12434,0.371508,1.135165,0.762142,0.1813,-0.212084,-1.091346,-0.154122675,-0.464132902,2.033118005
4.393667,-1.971274,8.084426,0.383183,1.075,0.815,0.196122,-0.230472,-1.085635,-0.153828429,-0.458162163,2.036729093
4.258861,-2.164621,8.140106,0.402222,1.033966,0.816573,0.196122,-0.230472,-1.085635,-0.153422326,-0.45240664,2.040363236
4.164276,-2.253283,8.203462,0.434438,1.025027,0.723216,0.201919,-0.222974,-1.090322,-0.152628375,-0.446756745,2.043473536
4.194563,-2.059176,8.259392,0.486501,1.027215,0.598667,0.201919,-0.222974,-1.090322,-0.151250176,-0.44120499,2.045911693
4.211093,-1.831049,8.316395,0.581316,1.03813,0.491684,0.20369,-0.236228,-1.035996,-0.149149235,-0.435670915,2.0477671
4.203884,-1.642478,8.342621,0.708344,1.069871,0.425876,0.20369,-0.236228,-1.035996,-0.146233451,-0.430044757,2.049242602
4.067914,-1.520739,8.668172,0.84155,1.098174,0.375819,0.213908,-0.244289,-1.035543,-0.142542009,-0.424306216,2.050463932
4.03142,-1.44712,8.914289,0.917455,1.101859,0.33393,0.213908,-0.244289,-1.035543,-0.138366359,-0.418595881,2.051452976
4.158325,-1.368147,8.970349,0.944265,1.120276,0.310318,0.228724,-0.254587,-1.024479,-0.134017276,-0.412801804,2.052339568
4.256855,-1.323758,9.174664,0.941522,1.143132,0.298384,0.228724,-0.254587,-1.024479,-0.129641838,-0.406918244,2.053155563
4.228939,-1.34227,9.570643,0.918035,1.165732,0.271884,0.236306,-0.270198,-1.076231,-0.125340333,-0.400930279,2.053857063
4.185053,-1.266599,9.725193,0.874438,1.197294,0.243453,0.236306,-0.270198,-1.076231,-0.121182329,-0.39481836,2.054391762
4.100893,-1.196043,9.858467,0.843492,1.256434,0.222111,0.254484,-0.275803,-1.075247,-0.11714093,-0.388415844,2.054798511
3.826601,-0.965817,10.282973,0.791448,1.27461,0.197817,0.254484,-0.275803,-1.075247,-0.113300558,-0.381950286,2.055090872
3.79845,-0.870048,10.332457,0.729907,1.27642,0.178605,0.266676,-0.286048,-1.064341,-0.109750068,-0.375475409,2.055311883
3.808964,-0.785241,10.149072,0.713186,1.306816,0.159565,0.266676,-0.286048,-1.064341,-0.106234153,-0.368872511,2.055430146
3.729264,-0.785767,10.161936,0.729603,1.349944,0.113385,0.278688,-0.301524,-1.053551,-0.102560513,-0.362066858,2.055332006
3.631424,-0.756502,10.178268,0.755669,1.385103,0.067475,0.278688,-0.301524,-1.053551,-0.098662301,-0.355121754,2.054970496
3.540673,-0.706991,9.977137,0.790897,1.419442,0.023781,0.289199,-0.302224,-1.006227,-0.094527614,-0.34801306,2.054410141
3.500272,-0.665864,10.011571,0.834932,1.466311,0.00023,0.289199,-0.302224,-1.006227,-0.0901257,-0.340692064,2.053716197
3.311445,-0.554515,10.120943,0.859719,1.477488,-0.003244,0.296237,-0.309746,-0.995576,-0.085621247,-0.333301499,2.053059726
3.215132,-0.531659,9.981391,0.884625,1.482225,0.013942,0.296237,-0.309746,-0.995576,-0.081025357,-0.32588992,2.052504275
3.06702,-0.463525,9.910422,0.927323,1.489168,0.03513,0.319319,-0.320082,-1.038502,-0.076278775,-0.318421252,2.052097753
3.041429,-0.492382,9.929386,0.952092,1.483369,0.054208,0.319319,-0.320082,-1.038502,-0.071442291,-0.31098447,2.051829548
2.892629,-0.432114,10.075166,0.934737,1.458107,0.075194,0.329049,-0.33088,-0.983645,-0.066754038,-0.303652845,2.051740292
2.801138,-0.413589,10.127582,0.895098,1.401178,0.101818,0.329049,-0.33088,-0.983645,-0.062309817,-0.296608745,2.051822375
2.820131,-0.478478,9.929525,0.842552,1.348905,0.130862,0.3424,-0.336742,-0.990742,-0.058197558,-0.289805222,2.05211182
2.677431,-0.475563,9.922511,0.801405,1.298973,0.153588,0.3424,-0.336742,-0.990742,-0.054322436,-0.283257669,2.052553685
2.564299,-0.488848,9.964575,0.738594,1.24063,0.173252,0.350882,-0.348215,-1.008626,-0.050810082,-0.276985669,2.053151845
2.544044,-0.574125,9.894461,0.673541,1.175051,0.186093,0.350882,-0.348215,-1.008626,-0.047635693,-0.271052123,2.053840255
2.463988,-0.530475,9.771284,0.636268,1.126757,0.20342,0.371431,-0.362206,-0.960965,-0.04468722,-0.265345243,2.05467208
2.368021,-0.519223,9.644319,0.622111,1.086194,0.21987,0.371431,-0.362206,-0.960965,-0.041821877,-0.259852323,2.0555896
2.360197,-0.568477,9.501639,0.619838,1.045254,0.242659,0.39325,-0.363361,-0.97524,-0.039011232,-0.254550534,2.056637513
2.324822,-0.636499,9.346732,0.634417,1.023674,0.253188,0.39325,-0.363361,-0.97524,-0.036128191,-0.249368858,2.057768732
2.329554,-0.657277,9.261354,0.650432,1.017135,0.257033,0.383986,-0.361988,-0.949825,-0.033180067,-0.244210658,2.058935834
2.212588,-0.616843,9.257751,0.666773,1.015595,0.263976,0.383986,-0.361988,-0.949825,-0.03014438,-0.239074204,2.060152468
2.179323,-0.60834,9.159853,0.676636,1.017543,0.282587,0.388262,-0.369335,-0.936742,-0.027091065,-0.233916963,2.061487663
2.137743,-0.574633,9.229704,0.677632,1.037792,0.282953,0.388262,-0.369335,-0.936742,-0.024017207,-0.228674446,2.062828007
2.027677,-0.443606,9.266548,0.666265,1.061819,0.278073,0.411322,-0.38551,-0.935678,-0.021002341,-0.223304362,2.0641639
1.938725,-0.295484,9.239223,0.656555,1.071869,0.294412,0.411322,-0.38551,-0.935678,-0.01803837,-0.217898342,2.065588665
1.852116,-0.187933,9.187181,0.667288,1.09719,0.323391,0.421778,-0.399166,-0.943108,-0.015059336,-0.212355209,2.067189796
1.835885,-0.174315,9.206004,0.674233,1.129827,0.344415,0.421778,-0.399166,-0.943108,-0.012049985,-0.206664421,2.068895612
1.803797,-0.1843,9.170399,0.677751,1.175045,0.346678,0.425677,-0.400797,-0.919554,-0.009030198,-0.200740404,2.07063609
1.713715,-0.178303,9.253106,0.678513,1.226684,0.331544,0.425677,-0.400797,-0.919554,-0.0059721,-0.194576021,2.072303508
1.645756,-0.116864,9.486167,0.67743,1.247371,0.31672,0.43005,-0.413619,-0.911766,-0.002909762,-0.188300914,2.07393684
1.673682,-0.127962,9.526299,0.653272,1.244934,0.304013,0.43005,-0.413619,-0.911766,0.0000620988,-0.182055512,2.075498143
1.677317,-0.098011,9.600243,0.606881,1.228018,0.29471,0.448137,-0.42184,-0.910841,0.002805304,-0.175886905,2.077039287
1.611108,-0.049135,9.605299,0.571823,1.204684,0.276051,0.448137,-0.42184,-0.910841,0.00540794,-0.169850768,2.078489394
1.475423,0.020927,9.700219,0.561944,1.184527,0.288668,0.451402,-0.411673,-0.915627,0.007944969,-0.163908391,2.080001478
1.362526,0.098188,9.699727,0.581616,1.15631,0.309449,0.451402,-0.411673,-0.915627,0.01058218,-0.158123111,2.081647115
1.422483,0.059715,9.672702,0.609611,1.131037,0.335113,0.465617,-0.426838,-0.896914,0.013334915,-0.152458293,2.08343716
1.41094,0.012996,9.592726,0.63089,1.104584,0.360602,0.465617,-0.426838,-0.896914,0.016194533,-0.146944412,2.085366797
1.295003,0.037842,9.575727,0.629848,1.072608,0.379229,0.477901,-0.434467,-0.885949,0.019032492,-0.141585742,2.087401573
1.349516,0.037553,9.705733,0.617015,1.054723,0.401341,0.477901,-0.434467,-0.885949,0.021811511,-0.136336139,2.089560162
1.327074,0.017796,9.807641,0.601977,1.017796,0.421197,0.47698,-0.444445,-0.875828,0.024500349,-0.131267037,2.091840942
1.343739,-0.024917,9.76559,0.588437,0.978854,0.425114,0.47698,-0.444445,-0.875828,0.027140737,-0.126411337,2.094135091
1.334896,-0.016841,9.677856,0.570793,0.951609,0.434792,0.484199,-0.446736,-0.86506,0.029685271,-0.121687287,2.09648811
1.285861,-0.05193,9.767399,0.561386,0.951832,0.455276,0.484199,-0.446736,-0.86506,0.032191792,-0.116983012,2.098952149
1.197885,-0.017292,9.836549,0.549352,0.935818,0.459412,0.497278,-0.460445,-0.872332,0.034634747,-0.112353647,2.101449036
1.228538,0.026212,9.773382,0.516079,0.925083,0.474782,0.497278,-0.460445,-0.872332,0.036924935,-0.107798422,2.104026574
1.16559,0.062654,9.790507,0.475579,0.926365,0.487614,0.496308,-0.467686,-0.859564,0.039005054,-0.103232692,2.106689476
1.106967,0.058014,9.743985,0.422495,0.935468,0.486284,0.496308,-0.467686,-0.859564,0.040843061,-0.098638529,2.109343338
1.043495,0.072429,9.716849,0.369103,0.94188,0.460543,0.503716,-0.472835,-0.854032,0.042426407,-0.093999582,2.111882566
1.010403,0.182131,9.800238,0.331998,0.938953,0.433593,0.503716,-0.472835,-0.854032,0.04385934,-0.089385174,2.114285327
0.930693,0.238957,9.889278,0.319296,0.915328,0.41197,0.519313,-0.473034,-0.8505,0.045237488,-0.084876079,2.116569789
0.908,0.326856,9.865067,0.336853,0.882676,0.394311,0.519313,-0.473034,-0.8505,0.04673259,-0.080540522,2.118773949
0.871645,0.352723,9.841112,0.374581,0.871421,0.385654,0.51136,-0.483579,-0.856383,0.048417514,-0.076250553,2.120950515
0.745728,0.389329,9.805742,0.41507,0.866251,0.381148,0.51136,-0.483579,-0.856383,0.050326765,-0.07200125,2.123097917
0.654002,0.385369,9.860176,0.442287,0.865794,0.368975,0.512406,-0.487651,-0.830456,0.052373566,-0.067743221,2.1252057
0.588845,0.456406,9.863276,0.448318,0.856368,0.361692,0.512406,-0.487651,-0.830456,0.054472744,-0.063546785,2.127269081
0.482088,0.480121,9.859244,0.428451,0.845283,0.361591,0.525569,-0.490655,-0.832317,0.056469506,-0.059398292,2.129335604
0.38211,0.576352,9.777837,0.404042,0.866259,0.372658,0.525569,-0.490655,-0.832317,0.058360327,-0.055163877,2.131472342
0.307432,0.602634,9.829285,0.362806,0.87636,0.396215,0.529893,-0.50074,-0.821882,0.060036018,-0.050877836,2.133744692
0.258984,0.596873,9.79325,0.296174,0.898533,0.409933,0.529893,-0.50074,-0.821882,0.061395648,-0.046500722,2.13609052
0.250903,0.564852,9.790051,0.228486,0.928809,0.414535,0.529566,-0.49776,-0.814057,0.062414432,-0.041964924,2.138475164
0.176902,0.616104,9.696904,0.185345,0.962731,0.412922,0.529566,-0.49776,-0.814057,0.063239449,-0.03727332,2.140864382
0.116375,0.554243,9.554042,0.142814,0.998903,0.412601,0.550973,-0.506641,-0.825919,0.063851659,-0.032391335,2.143259969
0.094306,0.457635,9.45225,0.094801,1.052906,0.411187,0.550973,-0.506641,-0.825919,0.064246592,-0.027252159,2.145674319
0.113732,0.446705,9.495047,0.051906,1.096056,0.404397,0.549584,-0.513518,-0.805385,0.064429189,-0.021883977,2.148079768
0.105128,0.524295,9.557874,0.030092,1.129072,0.40139,0.549584,-0.513518,-0.805385,0.064526822,-0.016362643,2.150471359
-0.024597,0.527345,9.634401,0.017018,1.145947,0.413006,0.553895,-0.507423,-0.784244,0.06456056,-0.010749138,2.152926846
-0.107432,0.519584,9.653584,0.005196,1.160483,0.410938,0.553895,-0.507423,-0.784244,0.064560071,-0.005074355,2.155376294
-0.109093,0.517464,9.57386,0.000171,1.181634,0.402363,0.57254,-0.516129,-0.793674,0.064537643,0.000720559,2.157787241
-0.14004,0.546379,9.486888,-0.005597,1.21498,0.389272,0.57254,-0.516129,-0.793674,0.064511306,0.006674351,2.16014588
-0.202043,0.555648,9.534711,-0.004337,1.244333,0.37795,0.576998,-0.518245,-0.780474,0.064494167,0.012790284,2.162459681
-0.214886,0.615607,9.604825,0.004396,1.264432,0.356686,0.576998,-0.518245,-0.780474,0.064544241,0.019001338,2.164671904
-0.274929,0.669336,9.616678,0.01663,1.266341,0.324496,0.582194,-0.515614,-0.777513,0.06465493,0.025243982,2.16672347
-0.261699,0.743485,9.647833,0.009223,1.276697,0.291853,0.582194,-0.515614,-0.777513,0.064747729,0.031536787,2.168617799
-0.364513,0.789868,9.603703,0.002419,1.299441,0.262038,0.581176,-0.520118,-0.762097,0.064803021,0.037964907,2.170382938
-0.433434,0.790394,9.690127,-0.001943,1.3179,0.21851,0.581176,-0.520118,-0.762097,0.064849813,0.044486821,2.171926002
-0.38045,0.885102,9.734923,0.029659,1.343372,0.177065,0.597422,-0.518187,-0.768862,0.065044784,0.051160841,2.173269121
-0.547451,0.932232,9.685911,0.107042,1.365473,0.153591,0.597422,-0.518187,-0.768862,0.06564043,0.057940505,2.174507712
-0.516739,0.848428,9.639074,0.154671,1.376553,0.111451,0.603671,-0.527718,-0.745326,0.066459897,0.0648007,2.175555346
-0.652452,0.884019,9.755057,0.177779,1.359645,0.060626,0.603671,-0.527718,-0.745326,0.067395098,0.071580416,2.176338929
-0.982523,0.931421,9.77092,0.235954,1.375034,0.036931,0.622582,-0.520487,-0.749228,0.068608224,0.078455463,2.177006728
-1.164239,1.036981,9.816335,0.270117,1.402205,0.028057,0.622582,-0.520487,-0.749228,0.070005134,0.085456872,2.177659097
-1.234869,1.06469,9.913505,0.313816,1.414977,0.030847,0.637433,-0.517342,-0.730106,0.071617487,0.092531218,2.178325412
-1.236264,1.095008,10.004268,0.354494,1.408679,0.034629,0.637433,-0.517342,-0.730106,0.073451061,0.099560395,2.179036564
-1.30621,1.041945,9.908767,0.374732,1.383072,0.045607,0.647512,-0.525282,-0.727064,0.075386754,0.106468097,2.179802327
-1.448114,0.942765,9.780173,0.361516,1.359068,0.062483,0.647512,-0.525282,-0.727064,0.077281502,0.113236592,2.180662042
-1.401577,0.925017,9.628569,0.348727,1.346577,0.064288,0.646493,-0.529786,-0.711648,0.079110049,0.119952639,2.181546139
-1.434217,0.871544,9.487547,0.331283,1.33577,0.065818,0.646493,-0.529786,-0.711648,0.08086922,0.126600514,2.182439503
-1.491575,0.870468,9.439517,0.330296,1.32471,0.0635,0.667426,-0.527475,-0.707744,0.082618878,0.133204127,2.183318766
-1.512581,0.932867,9.3672,0.331439,1.310952,0.059582,0.667426,-0.527475,-0.707744,0.084388241,0.139727769,2.184195428
-1.615158,0.937932,9.38856,0.352166,1.2897,0.076291,0.663276,-0.534178,-0.684778,0.086269428,0.146149047,2.185167594
-1.74993,0.96501,9.397284,0.379449,1.26965,0.095155,0.663276,-0.534178,-0.684778,0.088317887,0.152448135,2.186231861
-1.773222,0.946341,9.32585,0.423852,1.271942,0.102583,0.678838,-0.547819,-0.689305,0.090593396,0.158765444,2.187361055
-1.720396,1.077934,9.343503,0.479247,1.314268,0.099725,0.678838,-0.547819,-0.689305,0.093166344,0.165279697,2.188500511
-1.968448,1.17138,9.445434,0.537709,1.350712,0.100665,0.680853,-0.54465,-0.676146,0.096036207,0.171983998,2.189686602
-2.047532,1.225648,9.5096,0.588232,1.398,0.089943,0.680853,-0.54465,-0.676146,0.099174834,0.17891315,2.190858522
-2.205526,1.305529,9.55764,0.621077,1.454496,0.08226,0.697734,-0.554517,-0.65457,0.102478761,0.18613557,2.192047371
-2.385095,1.374054,9.681966,0.614295,1.502577,0.057748,0.697734,-0.554517,-0.65457,0.105753262,0.193593854,2.193160629
-2.402693,1.430243,9.7187,0.588231,1.531475,0.051733,0.702142,-0.553896,-0.638723,0.108898329,0.201207559,2.194285599
-2.568404,1.342248,9.698999,0.555239,1.546787,0.053858,0.702142,-0.553896,-0.638723,0.111905568,0.208880658,2.19545525
-2.566202,1.309544,9.611814,0.538999,1.577029,0.041391,0.722433,-0.561806,-0.629875,0.114826692,0.216719633,2.196600099
-2.591671,1.253326,9.483203,0.540387,1.622093,0.038841,0.722433,-0.561806,-0.629875,0.117781728,0.224768537,2.197788459
-2.69496,1.233399,9.447021,0.504628,1.661321,0.044199,0.729374,-0.563854,-0.61393,0.120575512,0.233017804,2.199051851
-2.728636,1.178724,9.349787,0.462891,1.689038,0.075582,0.729374,-0.563854,-0.61393,0.123227995,0.241369993,2.200520581
-2.780818,1.19649,9.272865,0.440193,1.694228,0.097984,0.740102,-0.569663,-0.621184,0.125804346,0.249742673,2.202134942
-2.802469,1.118983,9.206591,0.40704,1.695952,0.124319,0.740102,-0.569663,-0.621184,0.128277933,0.258090848,2.203908424
-2.813683,1.083018,9.190493,0.385515,1.67817,0.145239,0.75182,-0.568717,-0.594511,0.130679978,0.266345212,2.205795038
-2.814672,1.049095,9.077082,0.37824,1.664891,0.163327,0.75182,-0.568717,-0.594511,0.133099093,0.274505363,2.207797822
-2.856278,1.029492,8.954768,0.379527,1.66736,0.181261,0.755635,-0.581053,-0.576368,0.135563778,0.282673839,2.20993072
-2.876277,0.928049,8.89616,0.36466,1.67394,0.188762,0.755635,-0.581053,-0.576368,0.13799984,0.290851932,2.212122278
-2.998056,0.937811,8.852726,0.350646,1.6671,0.206497,0.768003,-0.577977,-0.559992,0.140406318,0.298990946,2.21442121
-3.065611,0.937735,8.883001,0.344756,1.653375,0.206214,0.768003,-0.577977,-0.559992,0.142814996,0.307044684,2.216740247
-2.989373,0.929227,8.953661,0.318842,1.629617,0.220433,0.772746,-0.588425,-0.557322,0.145127209,0.314978309,2.21915149
-3.207155,1.033291,8.996432,0.292927,1.600296,0.214323,0.772746,-0.588425,-0.557322,0.147328192,0.322753265,2.221523027
-3.191904,0.985649,9.171634,0.266291,1.577418,0.189333,0.774762,-0.585256,-0.544163,0.149363666,0.330441461,2.223774328
-3.25753,1.063767,9.049662,0.262889,1.58353,0.167524,0.774762,-0.585256,-0.544163,0.151379679,0.338159188,2.225934209
-3.365622,1.223447,9.11487,0.281943,1.582984,0.162963,0.792054,-0.587397,-0.525001,0.153496538,0.345885555,2.228083391
-3.472445,1.277556,9.241457,0.277367,1.52236,0.165655,0.792054,-0.587397,-0.525001,0.155611319,0.353293922,2.230229431
-3.521425,1.268461,9.278572,0.266594,1.456699,0.162385,0.792639,-0.596458,-0.494013,0.157659743,0.360389038,2.232331612
-3.557665,1.270325,9.285273,0.262091,1.398938,0.162229,0.792639,-0.596458,-0.494013,0.159698795,0.367182386,2.234399287
-3.744038,1.349306,9.226161,0.273909,1.365124,0.168334,0.792311,-0.593478,-0.486188,0.161808724,0.37381251,2.236494049
-3.835329,1.324721,9.230186,0.292069,1.330527,0.180112,0.792311,-0.593478,-0.486188,0.164051508,0.380245553,2.238638658
-3.790221,1.240198,9.185997,0.293609,1.302231,0.184075,0.794376,-0.593046,-0.475676,0.166311239,0.386543768,2.240801401
-3.939498,1.251604,9.124376,0.301268,1.277114,0.189664,0.794376,-0.593046,-0.475676,0.168642249,0.392696388,2.242991302
-4.052706,1.282028,9.187805,0.280233,1.231547,0.206473,0.817751,-0.596021,-0.471732,0.170897129,0.39861728,2.245231712
-3.988178,1.274622,9.111554,0.251887,1.198835,0.217347,0.817751,-0.596021,-0.471732,0.173050656,0.404351422,2.247537921
-4.045935,1.350586,9.081429,0.235867,1.179456,0.216287,0.808354,-0.602617,-0.44908,0.175124231,0.409999188,2.249843101
-4.162806,1.394935,9.122943,0.225538,1.14926,0.206227,0.808354,-0.602617,-0.44908,0.177141815,0.415490153,2.252079357
-4.136469,1.372053,9.085865,0.214,1.121273,0.193289,0.816223,-0.602777,-0.448609,0.179070596,0.420863152,2.254232937
-4.201093,1.361848,8.95848,0.199885,1.107857,0.198279,0.816223,-0.602777,-0.448609,0.180961574,0.426149564,2.256419766
-4.254997,1.396665,8.97166,0.187727,1.092019,0.196021,0.817687,-0.607213,-0.430447,0.182787311,0.431368939,2.258595372
-4.302703,1.395032,9.019659,0.152131,1.054749,0.171252,0.817687,-0.607213,-0.430447,0.18438928,0.436411808,2.260613532
-4.230965,1.430525,8.908834,0.1142,1.031169,0.14088,0.822793,-0.607198,-0.427544,0.185725958,0.441376364,2.262452866
-4.306458,1.510886,8.862619,0.094753,1.009394,0.12122,0.822793,-0.607198,-0.427544,0.186932906,0.446237684,2.264177025
-4.338413,1.564597,8.900974,0.077953,0.977246,0.101566,0.824767,-0.609382,-0.417091,0.187996772,0.450970059,2.265770965
-4.365798,1.665053,8.828974,0.052207,0.948372,0.095762,0.824767,-0.609382,-0.417091,0.188925428,0.455552196,2.267311847
-4.375257,1.797641,8.749895,0.055013,0.932409,0.091566,0.840134,-0.612075,-0.411029,0.189850557,0.460070524,2.268810283
-4.302081,1.860105,8.802805,0.074293,0.936421,0.100141,0.840134,-0.612075,-0.411029,0.190914702,0.464587176,2.270379282
-4.270023,1.893487,8.738585,0.102584,0.938836,0.119244,0.835258,-0.609595,-0.416462,0.192169368,0.469108139,2.272064136
-4.399095,1.945777,8.670457,0.159199,0.955855,0.138534,0.835258,-0.609595,-0.416462,0.193785526,0.473679665,2.273885859
-4.473269,1.991359,8.566512,0.193129,0.947913,0.164913,0.844088,-0.624533,-0.395475,0.195637653,0.478196509,2.275865674
-4.639603,1.978966,8.510099,0.217651,0.941181,0.196035,0.844088,-0.624533,-0.395475,0.197712867,0.482633871,2.278016724
-4.754676,1.970808,8.401503,0.249459,0.93759,0.207283,0.835753,-0.621272,-0.385533,0.199980383,0.487051022,2.28025038
-4.578952,1.803126,8.540483,0.257147,0.916564,0.209679,0.835753,-0.621272,-0.385533,0.202307518,0.491345598,2.282481732
-4.504914,1.683222,8.419747,0.256728,0.907445,0.203895,0.837538,-0.620598,-0.369843,0.204618911,0.495608986,2.284685961
-4.530035,1.704513,8.207673,0.2747,0.922422,0.202065,0.837538,-0.620598,-0.369843,0.207049528,0.499930737,2.286914922
-4.458762,1.689656,8.135045,0.291568,0.939338,0.206554,0.842791,-0.628794,-0.374882,0.209593433,0.504338236,2.289214028
-4.440893,1.664127,8.094789,0.294381,0.945127,0.207269,0.842791,-0.628794,-0.374882,0.212184236,0.508755597,2.291534985
-4.461192,1.68662,7.994485,0.305118,0.948179,0.209591,0.844807,-0.625626,-0.361723,0.21484555,0.513192034,2.293887132
-4.574659,1.742002,8.040344,0.308691,0.953994,0.224102,0.844807,-0.625626,-0.361723,0.217596819,0.517623741,2.296352096
-4.649098,1.775252,8.07059,0.289854,0.952495,0.237148,0.849124,-0.62762,-0.345935,0.220299375,0.522039827,2.298899126
-4.734878,1.796895,8.079009,0.26023,0.95796,0.245674,0.849124,-0.62762,-0.345935,0.222910633,0.526455582,2.3015307
-4.823465,1.886136,8.058599,0.235353,0.972212,0.24006,0.855744,-0.634779,-0.327517,0.225401516,0.530952913,2.304159376
-4.867017,1.91691,8.128376,0.212538,0.976803,0.234699,0.855744,-0.634779,-0.327517,0.22779562,0.535461362,2.306792817
-4.930882,2.028624,8.012127,0.181337,0.989373,0.225296,0.85031,-0.631814,-0.322596,0.230025645,0.540048264,2.3094024
-5.054508,2.066081,7.984349,0.156244,0.999391,0.230259,0.85031,-0.631814,-0.322596,0.232181198,0.544661468,2.312078916
-5.028138,2.034473,8.018652,0.118869,0.980458,0.247027,0.854725,-0.639283,-0.312102,0.234197001,0.549170423,2.314841843
-5.095744,2.032354,8.047321,0.069146,0.965254,0.266523,0.854725,-0.639283,-0.312102,0.236040768,0.553566159,2.317715127
-5.224232,2.056535,7.966379,0.049109,0.960005,0.277837,0.862635,-0.63409,-0.308925,0.237825263,0.557930025,2.320646304
-5.335042,2.11328,7.952484,0.027368,0.951417,0.290106,0.862635,-0.63409,-0.308925,0.239561081,0.562221896,2.323669635
-5.391536,2.163378,7.931899,-0.003567,0.950261,0.303263,0.856469,-0.643961,-0.299118,0.241192476,0.566500416,2.326785956
-5.40446,2.114821,7.948258,-0.026669,0.951112,0.298035,0.856469,-0.643961,-0.299118,0.242722118,0.570772914,2.329887565
-5.531495,2.114264,7.86244,-0.051659,0.959987,0.282724,0.848273,-0.640821,-0.291765,0.244096513,0.575115469,2.33293245
-5.701713,2.11155,7.939695,-0.059463,0.970546,0.264598,0.848273,-0.640821,-0.291765,0.245411794,0.579515446,2.335900244
-5.811648,2.208626,7.875643,-0.066654,0.991015,0.243553,0.847163,-0.647941,-0.276408,0.246650856,0.584049726,2.338798819
-5.828369,2.242622,7.984625,-0.052771,1.015813,0.240803,0.847163,-0.647941,-0.276408,0.247999542,0.588691868,2.341725964
-5.865111,2.198785,8.010191,-0.025751,1.035899,0.241212,0.846982,-0.653172,-0.276525,0.249513197,0.593440282,2.344715871
-5.924877,2.154291,7.952926,0.002278,1.045181,0.245858,0.846982,-0.653172,-0.276525,0.251221421,0.598210985,2.347752257
-6.027867,2.180476,7.86938,0.035354,1.061364,0.250292,0.859816,-0.653197,-0.270562,0.253138422,0.603062147,2.350856204
-6.121027,2.16346,7.883823,0.067582,1.072976,0.246107,0.859816,-0.653197,-0.270562,0.255246571,0.607957396,2.353978948
-6.12231,2.151121,7.815058,0.083263,1.083437,0.243595,0.864183,-0.657928,-0.257421,0.257451412,0.612913086,2.357122218
-6.102042,2.032046,7.781113,0.088127,1.0838,0.243722,0.864183,-0.657928,-0.257421,0.259716868,0.617852388,2.360295717
-6.097665,1.942369,7.687386,0.072178,1.078665,0.241643,0.860911,-0.660006,-0.247282,0.261909072,0.622776278,2.36347295
-6.210723,2.079974,7.567487,0.04736,1.07864,0.253321,0.860911,-0.660006,-0.247282,0.264053454,0.627666745,2.366744484
-6.168789,1.915088,7.59902,0.014586,1.054595,0.243004,0.857591,-0.659346,-0.234496,0.265992969,0.632461795,2.369937286
-6.064416,1.862507,7.442164,-0.010872,1.041744,0.219278,0.857591,-0.659346,-0.234496,0.267742471,0.637208848,2.37299109
-6.119179,1.840002,7.40014,-0.012145,1.02453,0.204787,0.870195,-0.661865,-0.226002,0.269432177,0.641900033,2.375938394
-6.082679,1.767073,7.449678,-0.034821,0.99531,0.186432,0.870195,-0.661865,-0.226002,0.270944034,0.646458992,2.378757747
-6.131361,1.791015,7.341589,-0.053321,0.96748,0.172919,0.862243,-0.67241,-0.231885,0.2722978,0.650912236,2.381480794
-6.156677,1.805597,7.374415,-0.060329,0.956789,0.164858,0.862243,-0.67241,-0.231885,0.273604249,0.655308548,2.384138966
-6.167275,1.768792,7.3366,-0.072834,0.939184,0.15503,0.869868,-0.658885,-0.218178,0.274803552,0.659642866,2.386707394
-6.212859,1.771982,7.315845,-0.08212,0.927439,0.143988,0.869868,-0.658885,-0.218178,0.27592922,0.663921228,2.389219011
-6.257093,1.788898,7.313464,-0.092959,0.919117,0.138004,0.861399,-0.663593,-0.211,0.27697764,0.668178437,2.39169436
-6.297857,1.85629,7.301753,-0.094777,0.915787,0.140468,0.861399,-0.663593,-0.211,0.278048505,0.672401333,2.394192591
-6.26448,1.913585,7.292876,-0.08864,0.900854,0.133923,0.863143,-0.668271,-0.198016,0.279116734,0.676572235,2.396638933
-6.266866,1.974721,7.270482,-0.079126,0.886773,0.139082,0.863143,-0.668271,-0.198016,0.280262299,0.68065334,2.399105625
-6.235526,1.982707,7.313306,-0.070425,0.872362,0.149614,0.870404,-0.665209,-0.184543,0.281484396,0.684660583,2.401612285
-6.188184,1.984566,7.253303,-0.059034,0.852986,0.165595,0.870404,-0.665209,-0.184543,0.282829941,0.688537764,2.404211884
-6.284524,2.052669,7.261278,-0.040581,0.833882,0.17776,0.878461,-0.668227,-0.189307,0.284302668,0.692315775,2.406857054
-6.341575,2.103381,7.273623,-0.029365,0.802904,0.184066,0.878461,-0.668227,-0.189307,0.285846552,0.695920807,2.40951123
-6.327885,2.096525,7.261691,-0.041312,0.770316,0.191145,0.872245,-0.675361,-0.176853,0.287328651,0.699369317,2.412165336
-6.382685,2.108322,7.263169,-0.045658,0.722662,0.196657,0.872245,-0.675361,-0.176853,0.288778672,0.702565697,2.414778671
-6.400249,2.090427,7.309689,-0.051337,0.675425,0.197121,0.875705,-0.676143,-0.192228,0.290150588,0.705545307,2.417323938
-6.380184,2.057814,7.292662,-0.055409,0.636256,0.191879,0.875705,-0.676143,-0.192228,0.291454507,0.708329125,2.41976911
-6.428753,2.022726,7.268045,-0.054251,0.604767,0.197397,0.869204,-0.674944,-0.169244,0.292751165,0.710964469,2.422196515
-6.462742,2.065997,7.239549,-0.055138,0.576627,0.206621,0.869204,-0.674944,-0.169244,0.294066166,0.713436729,2.424641635
-6.474528,2.071259,7.231906,-0.059741,0.553822,0.211153,0.874213,-0.669456,-0.161047,0.29535031,0.715802838,2.427063019
-6.50903,2.139561,7.220262,-0.059291,0.537872,0.218328,0.874213,-0.669456,-0.161047,0.296665032,0.718067857,2.429525994
-6.516536,2.171265,7.220293,-0.048334,0.523935,0.239494,0.873661,-0.67706,-0.156045,0.298106727,0.720245052,2.432097336
-6.476603,2.166089,7.203277,-0.038777,0.520377,0.262991,0.873661,-0.67706,-0.156045,0.299709115,0.72235533,2.434828376
-6.496315,2.195107,7.170621,-0.020861,0.52242,0.294723,0.870899,-0.676886,-0.153613,0.301539931,0.724437212,2.437768175
-6.511507,2.174593,7.168826,0.003781,0.533603,0.322652,0.870899,-0.676886,-0.153613,0.303647225,0.726514155,2.440926594
-6.529273,2.232434,7.121172,0.022679,0.543681,0.352745,0.857046,-0.681365,-0.144161,0.305994764,0.728601587,2.444313634
-6.449511,2.293149,7.06054,0.042353,0.557752,0.374055,0.857046,-0.681365,-0.144161,0.308573052,0.730704762,2.447874526
-6.401666,2.361305,7.003853,0.065743,0.568912,0.392958,0.86211,-0.686703,-0.143964,0.311371305,0.732837765,2.451594243
-6.297863,2.407087,6.92589,0.089751,0.57287,0.408986,0.86211,-0.686703,-0.143964,0.31438837,0.734944221,2.455439624
-6.236457,2.395472,6.884595,0.11484,0.578953,0.430354,0.864132,-0.691624,-0.136157,0.317640181,0.737049787,2.459447198
-6.229813,2.388209,6.796042,0.137418,0.586494,0.453082,0.864132,-0.691624,-0.136157,0.32113969,0.739133065,2.463637578
-6.250056,2.401823,6.719898,0.163201,0.584637,0.466834,0.869099,-0.691489,-0.130665,0.324835636,0.741186341,2.467915696
-6.254972,2.394854,6.662128,0.182717,0.585336,0.479271,0.869099,-0.691489,-0.130665,0.328711002,0.743199143,2.472308308
-6.238081,2.403132,6.62292,0.194631,0.593742,0.494125,0.8604,-0.698691,-0.120958,0.33273479,0.745227007,2.476829027
-6.318337,2.436959,6.569649,0.1952,0.605374,0.501607,0.8604,-0.698691,-0.120958,0.336839632,0.747271766,2.481448392
-6.348269,2.452797,6.534632,0.202796,0.615887,0.491634,0.857456,-0.703748,-0.118643,0.340968245,0.749381032,2.486046097
-6.318795,2.491588,6.507837,0.199292,0.621437,0.47845,0.857456,-0.703748,-0.118643,0.345059159,0.751512377,2.4905942
-6.307407,2.47622,6.52637,0.1922,0.624903,0.474764,0.851611,-0.708508,-0.111308,0.349117836,0.753665172,2.495148447
-6.373395,2.46817,6.470187,0.184548,0.625893,0.470627,0.851611,-0.708508,-0.111308,0.353150648,0.755803812,2.499698557
-6.412195,2.446815,6.458868,0.175728,0.618359,0.445881,0.853724,-0.710814,-0.103443,0.357031477,0.757949067,2.5040852
-6.39682,2.393621,6.502746,0.166045,0.611841,0.412129,0.853724,-0.710814,-0.103443,0.360731088,0.760098929,2.508265003
-6.343211,2.354523,6.511876,0.155094,0.597123,0.374731,0.845074,-0.720753,-0.096382,0.364196964,0.762248041,2.51219238
-6.45135,2.371497,6.47709,0.148659,0.578235,0.346885,0.845074,-0.720753,-0.096382,0.367499652,0.764336503,2.515905063
-6.496199,2.407245,6.446449,0.136301,0.556401,0.324295,0.840241,-0.71292,-0.09911,0.370611279,0.766367579,2.519432515
-6.523293,2.290338,6.45275,0.119471,0.540294,0.318522,0.840241,-0.71292,-0.09911,0.373607504,0.768314041,2.522898391
-6.60772,2.200157,6.429707,0.102452,0.51583,0.290857,0.836466,-0.725339,-0.086616,0.376358057,0.770202819,2.526143466
-6.708772,2.117627,6.322801,0.079988,0.503084,0.266112,0.836466,-0.725339,-0.086616,0.378882188,0.772059205,2.52920165
-6.750671,2.047239,6.282266,0.052524,0.48692,0.227203,0.851505,-0.725053,-0.072729,0.381068668,0.773918924,2.531961209
-6.760569,1.980791,6.218919,0.010318,0.478942,0.194549,0.851505,-0.725053,-0.072729,0.382899135,0.77578709,2.534514173
-6.78304,1.908681,6.246167,-0.028561,0.469213,0.160142,0.846399,-0.725067,-0.075632,0.384362978,0.777683478,2.536819056
-6.866454,1.859313,6.222738,-0.055285,0.46136,0.130216,0.846399,-0.725067,-0.075632,0.385557779,0.779585521,2.538924151
-6.964386,1.879271,6.239324,-0.094255,0.454426,0.092348,0.843867,-0.722398,-0.075731,0.38637119,0.781537306,2.540763467
-6.997899,1.915694,6.315328,-0.128112,0.446387,0.061367,0.843867,-0.722398,-0.075731,0.386871436,0.783497312,2.54239172
-7.02942,2.014609,6.379393,-0.163637,0.434383,0.040867,0.835587,-0.729964,-0.073789,0.387074208,0.785453007,2.543866524
-7.091752,2.133009,6.520574,-0.188704,0.411321,0.027532,0.835587,-0.729964,-0.073789,0.387057994,0.787314,2.545186866
-7.171864,2.301036,6.669076,-0.195448,0.376101,0.020531,0.838392,-0.724786,-0.073515,0.386904056,0.78903767,2.546367721
-7.340601,2.502886,6.843862,-0.186637,0.332848,0.020883,0.838392,-0.724786,-0.073515,0.386723729,0.790548079,2.54743794
-7.630835,2.565956,6.938884,-0.187452,0.302804,0.04372,0.845569,-0.73243,-0.065453,0.386583177,0.791888684,2.548575564
-7.687247,2.588153,7.089561,-0.179939,0.288536,0.030971,0.845569,-0.73243,-0.065453,0.38640271,0.793175097,2.549595657
-7.703474,2.663358,7.220698,-0.179389,0.258264,-0.011848,0.848422,-0.729988,-0.067826,0.385958908,0.794414246,2.550245304
-7.722662,2.643681,7.322428,-0.174633,0.198099,-0.061395,0.848422,-0.729988,-0.067826,0.385197752,0.795456016,2.550412349
-7.725287,2.640541,7.337716,-0.171777,0.117508,-0.106508,0.837973,-0.724422,-0.065749,0.384074248,0.796221291,2.550060683
-7.713045,2.550244,7.356304,-0.176306,0.020756,-0.137724,0.837973,-0.724422,-0.065749,0.382601835,0.796583709,2.549244217
-7.710942,2.485275,7.343433,-0.170157,-0.070542,-0.164854,0.848967,-0.714294,-0.067475,0.380848564,0.796583325,2.54798175
-7.78898,2.381574,7.403386,-0.17497,-0.157737,-0.207589,0.848967,-0.714294,-0.067475,0.378711617,0.796244347,2.54622635
-7.848892,2.324096,7.375384,-0.177794,-0.242588,-0.247617,0.851687,-0.719821,-0.072612,0.376204573,0.795593671,2.543974647
-7.857288,2.297611,7.357033,-0.176415,-0.31852,-0.283573,0.851687,-0.719821,-0.072612,0.373404819,0.794639569,2.541298742
-7.858032,2.320336,7.336689,-0.185357,-0.383906,-0.319258,0.843825,-0.727751,-0.078437,0.370268915,0.793453076,2.53823869
-7.843346,2.323264,7.31724,-0.206117,-0.445559,-0.350629,0.843825,-0.727751,-0.078437,0.366786266,0.792015447,2.534806254
-7.759758,2.28635,7.318852,-0.227358,-0.503308,-0.39078,0.852384,-0.720428,-0.085556,0.362907601,0.79038304,2.530974487
-7.802884,2.321664,7.254669,-0.250533,-0.549196,-0.42636,0.852384,-0.720428,-0.085556,0.358688388,0.788575681,2.526806377
-7.727898,2.35239,7.252251,-0.257029,-0.582607,-0.445199,0.863015,-0.720762,-0.087516,0.354299494,0.78664381,2.522443768
-7.634792,2.391977,7.205236,-0.254826,-0.607969,-0.459576,0.863015,-0.720762,-0.087516,0.349840141,0.78459235,2.517950415
-7.537145,2.438977,7.130705,-0.245463,-0.625529,-0.461123,0.855831,-0.705029,-0.090226,0.345403809,0.782458265,2.513413797
-7.409213,2.42021,7.094533,-0.230969,-0.640248,-0.454803,0.855831,-0.705029,-0.090226,0.34107731,0.780218814,2.508920392
-7.307867,2.393733,7.02781,-0.222373,-0.647338,-0.438277,0.861307,-0.702641,-0.092441,0.336873701,0.777916078,2.504528217
-7.175787,2.341139,6.882974,-0.214957,-0.650683,-0.430282,0.861307,-0.702641,-0.092441,0.332771843,0.775560302,2.500220079
-7.010057,2.265761,6.807677,-0.203023,-0.652836,-0.420169,0.859612,-0.7007,-0.108072,0.328787482,0.773177368,2.495997951
-6.865986,2.204412,6.729683,-0.182498,-0.642862,-0.39823,0.859612,-0.7007,-0.108072,0.325054727,0.77078295,2.491965279
-6.709469,2.120022,6.683077,-0.159048,-0.635169,-0.376833,0.868589,-0.693741,-0.122958,0.321561816,0.768392022,2.488104452
-6.595015,2.123623,6.605277,-0.134508,-0.625391,-0.362736,0.868589,-0.693741,-0.122958,0.318300946,0.766004568,2.484385974
-6.521269,2.065184,6.551209,-0.118202,-0.608112,-0.333529,0.864035,-0.68615,-0.130863,0.315290583,0.763656819,2.48091097
-6.44139,1.985993,6.563567,-0.101171,-0.591952,-0.308183,0.864035,-0.68615,-0.130863,0.312531496,0.761328113,2.47765935
-6.414789,1.952528,6.569394,-0.083065,-0.563511,-0.289816,0.866197,-0.691193,-0.125645,0.309994205,0.75911191,2.474602632
-6.339407,1.864439,6.548491,-0.074401,-0.548797,-0.289571,0.866197,-0.691193,-0.125645,0.30754631,0.756948434,2.471593683
-6.343342,1.836975,6.56834,-0.071509,-0.531834,-0.292661,0.861879,-0.689198,-0.141433,0.305127544,0.754877234,2.468626779
-6.302899,1.803998,6.585468,-0.069411,-0.512677,-0.287809,0.861879,-0.689198,-0.141433,0.302790216,0.752872949,2.465729583
-6.281116,1.777396,6.641821,-0.063789,-0.487368,-0.288192,0.864635,-0.681283,-0.138512,0.300516819,0.750996353,2.462887191
-6.295915,1.773522,6.660037,-0.058572,-0.47062,-0.286796,0.864635,-0.681283,-0.138512,0.298319466,0.749181943,2.460104123
-6.306721,1.774384,6.687508,-0.047411,-0.46062,-0.285167,0.87251,-0.689533,-0.143393,0.29619964,0.747420014,2.45736584
-6.326228,1.717975,6.737248,-0.037281,-0.459216,-0.279904,0.87251,-0.689533,-0.143393,0.294175214,0.745641541,2.454669951
-6.368727,1.751284,6.833762,-0.039009,-0.456713,-0.286833,0.870445,-0.689964,-0.153905,0.292115184,0.743892877,2.451959087
-6.455538,1.782338,6.91069,-0.028021,-0.454132,-0.288017,0.870445,-0.689964,-0.153905,0.290127567,0.742142363,2.449238903
-6.480513,1.758935,6.971168,-0.028996,-0.457156,-0.294204,0.86294,-0.679341,-0.154143,0.288103857,0.740393578,2.446488472
-6.500299,1.756255,7.0295,-0.025148,-0.472557,-0.302598,0.86294,-0.679341,-0.154143,0.286062537,0.738567282,2.443656726
-6.556671,1.734518,7.125826,-0.02694,-0.482214,-0.318391,0.866114,-0.67179,-0.158988,0.283931436,0.736723323,2.440708829
-6.575707,1.747369,7.212693,-0.024235,-0.507451,-0.343673,0.866114,-0.67179,-0.158988,0.281693382,0.734777874,2.437565507
-6.573322,1.754232,7.304288,-0.023318,-0.534602,-0.368533,0.866072,-0.677143,-0.161694,0.279320816,0.73274233,2.434231229
-6.557582,1.719014,7.329517,-0.014671,-0.555769,-0.394305,0.866072,-0.677143,-0.161694,0.27687786,0.730623116,2.43069547
-6.519911,1.723932,7.478754,-0.006367,-0.591351,-0.42097,0.875936,-0.673648,-0.194758,0.27432343,0.728373874,2.426951091
-6.458806,1.794845,7.630058,0.019377,-0.649504,-0.438871,0.875936,-0.673648,-0.194758,0.271778546,0.725850179,2.422987726
-6.397801,1.792936,7.691417,0.047278,-0.706441,-0.469093,0.872099,-0.66715,-0.168912,0.269186243,0.723095228,2.418738528
-6.34866,1.772657,7.844047,0.08101,-0.765105,-0.490072,0.872099,-0.66715,-0.168912,0.26663834,0.720066731,2.41427921
-6.303854,1.750974,7.963488,0.107467,-0.832711,-0.502317,0.885813,-0.662549,-0.175775,0.264108362,0.716729189,2.409626387
-6.309446,1.776831,8.054022,0.134385,-0.915206,-0.50999,0.885813,-0.662549,-0.175775,0.261627568,0.712985003,2.404827899
-6.243704,1.771096,8.115047,0.147897,-1.005041,-0.52726,0.889496,-0.652746,-0.188328,0.259065057,0.708829128,2.399772952
-6.19558,1.746678,8.236581,0.168366,-1.117182,-0.563677,0.889496,-0.652746,-0.188328,0.256382188,0.704158223,2.394354627
-6.199909,1.701819,8.225534,0.183572,-1.221909,-0.586992,0.882326,-0.653193,-0.201743,0.253603203,0.699008732,2.388655915
-6.208536,1.715989,8.23027,0.199544,-1.303869,-0.612889,0.882326,-0.653193,-0.201743,0.250776415,0.693472597,2.382703973
-6.166986,1.657434,8.267064,0.208628,-1.404509,-0.645526,0.87768,-0.648218,-0.209706,0.247808673,0.687485679,2.37643974
-6.172726,1.716716,8.239158,0.20847,-1.499399,-0.692348,0.87768,-0.648218,-0.209706,0.244636693,0.68107105,2.369784255
-6.052442,1.67668,8.146382,0.196196,-1.592451,-0.748169,0.894429,-0.635945,-0.218826,0.2411575,0.674263233,2.362675736
-6.029912,1.774661,8.06184,0.171109,-1.673933,-0.80026,0.894429,-0.635945,-0.218826,0.237369802,0.667092929,2.355216684
-6.104584,1.989066,7.990411,0.115553,-1.762366,-0.832908,0.879487,-0.641705,-0.238007,0.233181132,0.659517359,2.347523741
-6.121207,2.010102,7.856913,0.037955,-1.838253,-0.863673,0.879487,-0.641705,-0.238007,0.228534645,0.651570924,2.339602159
-6.131457,2.07809,7.86943,-0.036835,-1.901072,-0.883535,0.878337,-0.624069,-0.253287,0.223486382,0.643319353,2.331568405
-6.038024,2.075065,7.731712,-0.098241,-1.945495,-0.904152,0.878337,-0.624069,-0.253287,0.218146947,0.634831377,2.323452289
-5.918127,2.045282,7.705826,-0.157903,-1.978469,-0.921633,0.879174,-0.624797,-0.268819,0.212530614,0.626174837,2.315306851
-5.749378,2.004884,7.672057,-0.216775,-2.010035,-0.93599,0.879174,-0.624797,-0.268819,0.206680233,0.61733186,2.307136106
-5.584048,1.921358,7.689191,-0.254594,-2.039315,-0.948935,0.894263,-0.597139,-0.285511,0.200690121,0.60832683,2.29893145
-5.454173,1.891537,7.742384,-0.282201,-2.072258,-0.954407,0.894263,-0.597139,-0.285511,0.194660233,0.599118277,2.290808439
-5.343266,1.864991,7.824584,-0.304321,-2.12692,-0.926779,0.879273,-0.600162,-0.302045,0.188694939,0.589583941,2.28290829
-5.256577,1.834915,7.905808,-0.304971,-2.19302,-0.888336,0.879273,-0.600162,-0.302045,0.182950884,0.579642332,2.275276486
-5.212397,1.782122,7.901842,-0.297219,-2.238871,-0.852425,0.881219,-0.593771,-0.332934,0.177450878,0.569416094,2.267927931
-5.261273,1.784804,7.960791,-0.290596,-2.274913,-0.829908,0.881219,-0.593771,-0.332934,0.172169718,0.558950973,2.260782568
-5.246162,1.755494,8.107662,-0.293688,-2.301023,-0.809754,0.872389,-0.578833,-0.353922,0.167032881,0.548317236,2.253837969
-5.213654,1.757925,8.157164,-0.302312,-2.321823,-0.796693,0.872389,-0.578833,-0.353922,0.162011374,0.537531987,2.247058479
-5.135799,1.62714,8.211233,-0.300798,-2.324992,-0.786919,0.873638,-0.571835,-0.371867,0.157130646,0.526702808,2.240431304
-5.076068,1.53661,8.345963,-0.306066,-2.346354,-0.782117,0.873638,-0.571835,-0.371867,0.152351304,0.515728871,2.233921101
-4.959188,1.507726,8.385549,-0.316795,-2.37522,-0.781906,0.86697,-0.561939,-0.387637,0.14760844,0.504593316,2.227480135
-5.005797,1.459456,8.399187,-0.322869,-2.391312,-0.769296,0.86697,-0.561939,-0.387637,0.14298349,0.493334856,2.221203981
-4.697066,1.363247,8.579151,-0.337667,-2.411496,-0.753134,0.85936,-0.561536,-0.439981,0.138417602,0.481948759,2.215113198
-4.44145,1.183105,8.665604,-0.37442,-2.466775,-0.750744,0.85936,-0.561536,-0.439981,0.13377087,0.470253652,2.209075299
-4.490476,1.118014,8.469706,-0.403608,-2.511772,-0.775152,0.859953,-0.548578,-0.442278,0.129000238,0.458334217,2.202958511
-4.411772,1.085562,8.490605,-0.418544,-2.539073,-0.795205,0.859953,-0.548578,-0.442278,0.124217335,0.446258192,2.196819836
-4.240639,1.050918,8.571566,-0.424649,-2.55737,-0.801976,0.854534,-0.531685,-0.475993,0.119482237,0.434076905,2.190714671
-4.185677,1.027965,8.555703,-0.437318,-2.559058,-0.789668,0.854534,-0.531685,-0.475993,0.114829048,0.421846767,2.184789067
-4.177366,0.89103,8.657247,-0.429599,-2.551545,-0.785018,0.836133,-0.536664,-0.479799,0.110320826,0.409635287,2.178996351
-4.067907,0.854643,8.73003,-0.423317,-2.547025,-0.789491,0.836133,-0.536664,-0.479799,0.105945423,0.39741672,2.173262576
-3.990336,0.823327,8.807399,-0.420858,-2.539913,-0.7713,0.830386,-0.516791,-0.50569,0.101708792,0.385209306,2.167707435
-3.950973,0.781892,8.786152,-0.442557,-2.509397,-0.734282,0.830386,-0.516791,-0.50569,0.09754597,0.373106106,2.162458913
-3.916585,0.790948,8.974157,-0.473258,-2.488855,-0.686632,0.824052,-0.517965,-0.534637,0.09340219,0.361070607,2.157557189
-3.859426,0.751795,9.058322,-0.510398,-2.462976,-0.654367,0.824052,-0.517965,-0.534637,0.089227605,0.34912199,2.152911469
-3.721972,0.608492,9.10079,-0.517911,-2.427497,-0.647285,0.807032,-0.507977,-0.553625,0.085100301,0.337337505,2.148397714
-3.540125,0.522624,9.153259,-0.51439,-2.370069,-0.651336,0.807032,-0.507977,-0.553625,0.081073685,0.325815133,2.143951766
-3.498055,0.449013,9.076393,-0.51423,-2.308411,-0.642348,0.782103,-0.503182,-0.575789,0.07712999,0.314588996,2.139665427
-3.430639,0.414539,9.212928,-0.504357,-2.235348,-0.62573,0.782103,-0.503182,-0.575789,0.073344107,0.303696059,2.135534702
-3.442113,0.417351,9.189999,-0.508705,-2.169762,-0.626826,0.786107,-0.488269,-0.590813,0.069591246,0.29312402,2.131473633
-3.325213,0.407019,9.304733,-0.528664,-2.10427,-0.615619,0.786107,-0.488269,-0.590813,0.065827372,0.282852246,2.127554198
-3.242678,0.316751,9.327873,-0.527305,-2.057931,-0.583142,0.776314,-0.488662,-0.604385,0.062163488,0.272796126,2.12387609
-3.15961,0.26409,9.309673,-0.551986,-2.001841,-0.545446,0.776314,-0.488662,-0.604385,0.058490145,0.262986953,2.120453026
-3.102392,0.255838,9.228312,-0.574129,-1.938358,-0.502695,0.768314,-0.466362,-0.635553,0.054800866,0.253478517,2.117300751
-2.893492,0.229458,9.333709,-0.567559,-1.881588,-0.484975,0.768314,-0.466362,-0.635553,0.051219955,0.244229874,2.114313392
-2.641746,0.267259,9.363504,-0.544428,-1.828492,-0.470571,0.755995,-0.472176,-0.654576,0.047801936,0.235241721,2.111463408
-2.595283,0.347829,9.230541,-0.504775,-1.763627,-0.439941,0.755995,-0.472176,-0.654576,0.044664112,0.226552421,2.10881267
-2.499358,0.270138,9.135818,-0.451323,-1.694849,-0.405928,0.75195,-0.462333,-0.670189,0.041854549,0.218200336,2.106380972
-2.398839,0.187372,9.162939,-0.391925,-1.616907,-0.368023,0.75195,-0.462333,-0.670189,0.039421472,0.210215137,2.104188209
-2.215957,0.231467,9.197279,-0.332029,-1.55831,-0.335307,0.748051,-0.460703,-0.693743,0.037336082,0.202520361,2.102196334
-2.085746,0.28619,9.266635,-0.250036,-1.500418,-0.299319,0.748051,-0.460703,-0.693743,0.035726957,0.195095937,2.100415992
-2.147355,0.331049,9.247448,-0.171313,-1.45128,-0.258464,0.726838,-0.46277,-0.69247,0.034558686,0.187916854,2.098882231
-2.096026,0.348261,9.163249,-0.125165,-1.404934,-0.208904,0.726838,-0.46277,-0.69247,0.033690611,0.180949985,2.097601211
-1.924317,0.339796,9.26946,-0.086569,-1.347317,-0.165843,0.735949,-0.447842,-0.704592,0.033055503,0.174271009,2.096535757
-1.920118,0.27238,9.330943,-0.034524,-1.298787,-0.154617,0.735949,-0.447842,-0.704592,0.032709404,0.167824109,2.095559594
-1.871786,0.237254,9.407,-0.013157,-1.235864,-0.151613,0.720637,-0.455976,-0.718653,0.032471411,0.161699972,2.094617447
-1.751876,0.277347,9.595268,-0.002753,-1.19317,-0.147963,0.720637,-0.455976,-0.718653,0.032304906,0.155779324,2.093697501
-1.725684,0.328548,9.680115,0.009827,-1.159866,-0.147927,0.704712,-0.452797,-0.714361,0.032198284,0.150034169,2.09279178
-1.6973,0.386334,9.695919,0.012993,-1.127016,-0.149031,0.704712,-0.452797,-0.714361,0.032122205,0.144444087,2.091880194
-1.674704,0.434516,9.689682,-0.0114,-1.098643,-0.15612,0.703018,-0.450856,-0.729992,0.031915366,0.139005796,2.090938973
-1.535134,0.452362,9.861462,-0.022763,-1.078684,-0.176046,0.703018,-0.450856,-0.729992,0.03165334,0.133661194,2.089902421
-1.439595,0.457021,9.80175,-0.02339,-1.055415,-0.209322,0.695191,-0.445343,-0.727757,0.031362812,0.128446671,2.088699138
-1.399848,0.437774,9.679503,-0.029329,-1.019412,-0.240029,0.695191,-0.445343,-0.727757,0.031039926,0.123407677,2.087354152
-1.381209,0.385488,9.713058,-0.026466,-0.983469,-0.259196,0.679971,-0.450861,-0.741761,0.030718262,0.118560424,2.085935687
-1.323277,0.333999,9.58314,-0.026467,-0.956061,-0.273456,0.679971,-0.450861,-0.741761,0.030404853,0.113842291,2.084437077
-1.161267,0.318285,9.485713,-0.021246,-0.928411,-0.2879,0.685077,-0.450846,-0.738858,0.030107815,0.109273279,2.08287677
-1.08328,0.333608,9.466938,0.009771,-0.903034,-0.303861,0.685077,-0.450846,-0.738858,0.029974193,0.104823961,2.081237364
-1.092376,0.380121,9.357678,0.037753,-0.8831,-0.305418,0.673163,-0.440844,-0.754942,0.029977771,0.100483343,2.07959253
-0.965504,0.44996,9.372509,0.078338,-0.862352,-0.293517,0.673163,-0.440844,-0.754942,0.030206967,0.096235873,2.078012448
-0.968791,0.522001,9.263256,0.151103,-0.837165,-0.265492,0.662484,-0.437772,-0.750335,0.030810694,0.092119652,2.076576338
-0.914033,0.531102,9.289778,0.227234,-0.800573,-0.237108,0.662484,-0.437772,-0.750335,0.031823283,0.088174037,2.075285038
-0.819572,0.567528,9.304137,0.31652,-0.774812,-0.217655,0.675877,-0.438282,-0.754726,0.033285991,0.084364051,2.074078317
