ax,ay,az,gx,gy,gz,mx,my,mz,phi,theta,psi
-0.0007785456,0.13622919,0.37585807,0.13463116,-0.08207799,0.017575644,0.42606753,-0.34715176,-0.28993762,0.108227365,0.05501298,-0.19872332
0.00680314,0.13385698,0.36848307,0.13717717,-0.08529077,0.01992054,0.42606753,-0.34715176,-0.28993762,0.10951931,0.053693086,-0.19906473
0.011623047,0.13499625,0.37299228,0.14003853,-0.086053625,0.020148538,0.42238826,-0.35344338,-0.30336714,0.11085117,0.05238076,-0.19938159
0.010332806,0.13531269,0.37592506,0.14260176,-0.086892374,0.02154965,0.42238826,-0.35344338,-0.30336714,0.11225046,0.051034346,-0.19969606
0.007774871,0.13869122,0.38398457,0.14380437,-0.085477315,0.021994267,0.42338902,-0.3510244,-0.32056773,0.1136575,0.049726028,-0.20000267
0.012458017,0.13689077,0.3792739,0.14453702,-0.08475454,0.023333145,0.42338902,-0.3510244,-0.32056773,0.11509504,0.04840716,-0.20027995
0.012051579,0.13958083,0.3860476,0.1450156,-0.08153537,0.022918453,0.4249373,-0.36172587,-0.28177762,0.116525576,0.047155462,-0.20053649
0.012895839,0.14059493,0.38888454,0.14595175,-0.080786705,0.022774661,0.4249373,-0.36172587,-0.28177762,0.117991656,0.045896843,-0.20082188
0.014177129,0.13859461,0.39065218,0.14583299,-0.07696322,0.022173807,0.4245826,-0.36455828,-0.27755058,0.11943917,0.044714555,-0.20109582
0.01380582,0.13825008,0.40057564,0.14375255,-0.0745094,0.022142295,0.4245826,-0.36455828,-0.27755058,0.12086241,0.04355011,-0.2013855
0.016836137,0.13415325,0.40485334,0.14141151,-0.07146933,0.023827812,0.4214738,-0.36815608,-0.2995311,0.12222258,0.042444002,-0.20162249
0.022871729,0.13060173,0.41165066,0.1375651,-0.06772741,0.022434909,0.4214738,-0.36815608,-0.2995311,0.12352388,0.041378446,-0.20189452
0.026544392,0.13298549,0.42999792,0.136091,-0.0575039,0.01803509,0.4097634,-0.3590638,-0.30002737,0.12478169,0.04049252,-0.20224333
0.024200384,0.13603042,0.45082211,0.13091148,-0.052979626,0.016106477,0.4097634,-0.3590638,-0.30002737,0.12595409,0.039660763,-0.20261836
0.0215058,0.14238007,0.4626429,0.12380761,-0.05037046,0.013344242,0.41134393,-0.36313635,-0.3347174,0.12697172,0.038893122,-0.20305443
0.02705881,0.14064126,0.45963764,0.116441265,-0.049956582,0.012300625,0.41134393,-0.36313635,-0.3347174,0.12786067,0.03811741,-0.2035048
0.030623037,0.13999844,0.46609402,0.11186703,-0.052690938,0.010570357,0.41599947,-0.3702389,-0.27394664,0.12864393,0.037325636,-0.20397902
0.028098755,0.14387451,0.4648564,0.10883406,-0.055157177,0.010145601,0.41599947,-0.3702389,-0.27394664,0.12938459,0.036481433,-0.20448923
0.029061422,0.14764944,0.45103502,0.10649113,-0.05845578,0.00859911,0.40076077,-0.37365502,-0.29671586,0.13006344,0.03561264,-0.2050116
0.026704833,0.15437776,0.44512033,0.10368769,-0.0635968,0.008947602,0.40076077,-0.37365502,-0.29671586,0.13070431,0.03465,-0.20556903
0.027550682,0.15136231,0.42880106,0.10038678,-0.06491432,0.010183997,0.42176366,-0.37140185,-0.3082776,0.13126408,0.03368221,-0.20611358
0.033989314,0.15013953,0.42384076,0.09705546,-0.067898,0.0123864245,0.42176366,-0.37140185,-0.3082776,0.13177337,0.03264729,-0.20661044
0.03543864,0.14745553,0.40253592,0.0941448,-0.069218,0.0151605755,0.39267427,-0.37353468,-0.2972405,0.13220744,0.03160328,-0.20702267
0.033429004,0.13988613,0.39574027,0.09276384,-0.06595558,0.016152024,0.39267427,-0.37353468,-0.2972405,0.13263063,0.030585635,-0.20743656
0.036903944,0.13781466,0.38519812,0.090502955,-0.06486857,0.017395306,0.40878415,-0.37985468,-0.30071068,0.1329923,0.02959805,-0.20780468
0.027971733,0.14040783,0.3905661,0.08783336,-0.06502923,0.014152178,0.40878415,-0.37985468,-0.30071068,0.13331991,0.028600365,-0.20825934
0.028861318,0.13952985,0.37831903,0.08316137,-0.06577967,0.011516787,0.38089907,-0.37052053,-0.30225456,0.13354082,0.027617846,-0.20875382
0.025731746,0.14145699,0.37686944,0.0782504,-0.06646521,0.008302258,0.38089907,-0.37052053,-0.30225456,0.13368368,0.026617505,-0.20933652
0.019782946,0.14339063,0.3666222,0.07492789,-0.06774302,0.009105425,0.39217925,-0.37933677,-0.29311204,0.13374437,0.02561415,-0.20988059
0.023880627,0.14174637,0.35205364,0.07370723,-0.06848885,0.008019706,0.39217925,-0.37933677,-0.29311204,0.13379878,0.024585355,-0.21047425
0.02296736,0.14413449,0.34418702,0.073532246,-0.06471359,0.0049627367,0.40119106,-0.373931,-0.30536377,0.13383591,0.023638155,-0.21112657
0.017352255,0.1486979,0.3524735,0.07349301,-0.061389804,0.0030902643,0.40119106,-0.373931,-0.30536377,0.13388959,0.022727866,-0.21180677
0.010881444,0.15728281,0.34285378,0.07280694,-0.059916236,0.0052068923,0.3854466,-0.3739639,-0.31506252,0.13391234,0.021850105,-0.21242642
0.014522154,0.15705697,0.33808208,0.070281066,-0.059825793,0.006680295,0.3854466,-0.3739639,-0.31506252,0.13390091,0.020951532,-0.21302724
0.013583168,0.15658972,0.32612753,0.06889445,-0.058291577,0.008119538,0.39367503,-0.37111562,-0.31443942,0.13384542,0.02008808,-0.21359468
0.012579257,0.15610471,0.3124709,0.06603477,-0.058315694,0.011099447,0.39367503,-0.37111562,-0.31443942,0.13374765,0.019197762,-0.21409822
0.012358759,0.15855415,0.3028679,0.06336099,-0.053748507,0.0131207425,0.39388937,-0.37125307,-0.31876326,0.13357961,0.01838494,-0.21454549
0.009550866,0.1569692,0.30145717,0.061101988,-0.04546068,0.015268087,0.39388937,-0.37125307,-0.31876326,0.13338087,0.017668586,-0.21492839
0.016147561,0.15411462,0.30481672,0.05729083,-0.035694666,0.014000177,0.38384438,-0.3785259,-0.3673123,0.13309096,0.017115768,-0.21529818
0.014759308,0.15533327,0.31258297,0.05095443,-0.026864577,0.013141927,0.38384438,-0.3785259,-0.3673123,0.13269226,0.016676117,-0.21567917
0.024760012,0.15613846,0.31225848,0.04706628,-0.022772973,0.01599711,0.3823285,-0.36837643,-0.32810283,0.13219845,0.016304605,-0.21598291
0.030134905,0.14946002,0.295933,0.04352032,-0.013428288,0.019126372,0.3823285,-0.36837643,-0.32810283,0.13164747,0.016041834,-0.2162044
0.026604898,0.14762126,0.29780054,0.039998487,-0.0014354251,0.020565614,0.3858769,-0.37423986,-0.32371044,0.13100863,0.015966836,-0.21634579
0.031804048,0.14696212,0.3081808,0.03503213,0.007184711,0.02000819,0.3858769,-0.37423986,-0.32371044,0.13028766,0.016001023,-0.21649742
0.03008845,0.14929876,0.3323865,0.028185692,0.0095250495,0.01579665,0.40247095,-0.36557126,-0.3223672,0.12941921,0.016098786,-0.21674252
0.030212294,0.15030403,0.34748006,0.023728538,0.010955,0.014203287,0.40247095,-0.36557126,-0.3223672,0.12847939,0.016204786,-0.21700811
0.029377326,0.15042587,0.34887552,0.020576391,0.006761613,0.013883132,0.3904814,-0.36241978,-0.32305717,0.12746218,0.016267829,-0.21728468
0.029389564,0.15551977,0.35780573,0.022422064,0.008178442,0.0155400485,0.3904814,-0.36241978,-0.32305717,0.12649578,0.01632892,-0.21752858
0.027526207,0.15993497,0.36414218,0.026444286,0.007412751,0.018483944,0.38600636,-0.3620836,-0.31467164,0.12559055,0.016387753,-0.21769547
0.03311831,0.16278926,0.37380958,0.031540934,0.0063328403,0.019938545,0.38600636,-0.3620836,-0.31467164,0.12480079,0.01640882,-0.21785092
0.030541226,0.16710381,0.39579272,0.03631154,0.005426708,0.023609873,0.39415926,-0.35612696,-0.30962765,0.12408693,0.01642333,-0.21793032
0.03354605,0.1676256,0.40476203,0.04074163,0.0053086095,0.022425642,0.39415926,-0.35612696,-0.30962765,0.12347687,0.01642216,-0.21803546
0.022576902,0.17055935,0.43668032,0.04591716,0.0065509505,0.02336466,0.38594157,-0.3681618,-0.31919098,0.12295193,0.016454421,-0.21808457
0.021939088,0.17482749,0.44179845,0.05037599,0.005264633,0.025760131,0.38594157,-0.3681618,-0.31919098,0.12252938,0.016443085,-0.21811914
0.046055853,0.16818582,0.4222765,0.056379426,-0.0037945593,0.029698122,0.40799928,-0.348225,-0.33449185,0.122208476,0.016305115,-0.2181232
0.054638386,0.15927735,0.39570498,0.069257624,-0.013919124,0.026922647,0.40799928,-0.348225,-0.33449185,0.12215911,0.016010955,-0.21817684
0.059051864,0.15782113,0.37746477,0.078947805,-0.011664255,0.023008224,0.3944491,-0.3593728,-0.31837392,0.12228821,0.015778199,-0.21829176
0.0605362,0.17144097,0.39765835,0.080961116,-0.0013208725,0.02268489,0.3944491,-0.3593728,-0.31837392,0.122471996,0.015679546,-0.21840644
0.049480602,0.1851791,0.42031264,0.07407963,0.01045317,0.028178906,0.38808352,-0.3603528,-0.35349178,0.12249943,0.015754376,-0.21836615
0.037781175,0.17901939,0.44023633,0.06449814,0.01974998,0.034515284,0.38808352,-0.3603528,-0.35349178,0.12234748,0.015929472,-0.21818233
0.036335588,0.16724004,0.4151628,0.061497055,0.025973033,0.038320605,0.39276057,-0.3516422,-0.35726106,0.1221182,0.016201451,-0.21791315
0.041091364,0.15014611,0.38418508,0.06677602,0.031774405,0.03945346,0.39276057,-0.3516422,-0.35726106,0.122006446,0.016538002,-0.21759772
0.04493852,0.14139548,0.35199046,0.07762622,0.035009883,0.043498438,0.39134502,-0.3507927,-0.32731092,0.1220906,0.016927443,-0.21718693
0.054201588,0.13273707,0.3311484,0.08717939,0.0407155,0.049603634,0.39134502,-0.3507927,-0.32731092,0.12237314,0.017365731,-0.21663594
0.061276898,0.12912087,0.3346262,0.09167809,0.04689103,0.05523827,0.39467895,-0.3565188,-0.3185929,0.12272481,0.01789515,-0.21594
0.0794852,0.11841997,0.42714167,0.09209938,0.044580836,0.054860383,0.39467895,-0.3565188,-0.3185929,0.12310057,0.018374477,-0.21526861
0.124155074,0.10722667,0.7269254,0.119084835,0.0031243172,0.033941176,0.38283592,-0.3595829,-0.32812953,0.12401224,0.018326018,-0.21511555
0.08262327,0.12687251,0.6345055,0.14673749,-0.051907517,0.014263928,0.38283592,-0.3595829,-0.32812953,0.12550387,0.017515019,-0.21552634
0.05003966,0.13476941,0.5817013,0.1596545,-0.07676887,0.007888889,0.38582593,-0.37733006,-0.32412636,0.12724176,0.01637891,-0.21609259
0.040838577,0.14092699,0.47920346,0.16015238,-0.08735413,0.007900011,0.38582593,-0.37733006,-0.32412636,0.12900686,0.015072253,-0.2167263
0.037994534,0.14492823,0.4570825,0.14818409,-0.08819784,0.015285301,0.37895143,-0.37492692,-0.34618044,0.13051543,0.013749424,-0.21719217
0.03961881,0.13402899,0.35103083,0.12815146,-0.07621987,0.026184358,0.37895143,-0.37492692,-0.34618044,0.13163461,0.0125516765,-0.21741724
0.031715326,0.11702263,0.30168176,0.10817757,-0.053391725,0.03269551,0.3848899,-0.37367094,-0.3024032,0.13233717,0.011683308,-0.21743846
0.033186976,0.11545795,0.30409122,0.091421075,-0.027367115,0.034160174,0.3848899,-0.37367094,-0.3024032,0.1327206,0.011172134,-0.21737647
0.04336456,0.11893498,0.3261528,0.08053898,-0.010563064,0.035973594,0.3788666,-0.36263102,-0.33281446,0.13287151,0.010916028,-0.2172494
0.051766258,0.12986678,0.35140324,0.07699365,0.004043571,0.03719596,0.3788666,-0.36263102,-0.33281446,0.13296458,0.010852367,-0.2170453
0.0634318,0.14564596,0.37413955,0.07795101,0.0053852145,0.038626198,0.3733368,-0.37998074,-0.320688,0.13305958,0.010821074,-0.21677732
0.06343395,0.16218029,0.3900969,0.08325893,0.0037843217,0.04017269,0.3733368,-0.37998074,-0.320688,0.13327375,0.010744475,-0.21651101
0.059338644,0.16929772,0.37360144,0.08787407,0.0038524144,0.04543844,0.38604027,-0.37746745,-0.328452,0.13355948,0.010669131,-0.2161293
0.059900425,0.16601147,0.36678553,0.08916333,0.0046216515,0.04894532,0.38604027,-0.37746745,-0.328452,0.13388255,0.010577526,-0.21567535
0.061173223,0.16080625,0.3436892,0.08901983,0.0072875596,0.04965607,0.3774464,-0.37396282,-0.31590462,0.13418698,0.010538854,-0.2151947
0.055472344,0.15868695,0.3176744,0.08584565,0.015312237,0.050117634,0.3774464,-0.37396282,-0.31590462,0.1344425,0.010598756,-0.21468925
0.05268609,0.15642096,0.31243253,0.08409501,0.022838276,0.055534855,0.3738318,-0.37417746,-0.32481647,0.1346433,0.01076762,-0.21404576
0.061074197,0.1482141,0.3170333,0.08267503,0.030944878,0.055473946,0.3738318,-0.37417746,-0.32481647,0.13483028,0.011037961,-0.2133882
0.054670684,0.14904252,0.3492267,0.08184902,0.03603269,0.054132156,0.38221133,-0.3775447,-0.33304,0.134987,0.011402614,-0.21274447
0.050962213,0.15376495,0.36216497,0.08118351,0.03759989,0.055473417,0.38221133,-0.3775447,-0.33304,0.13514417,0.011769459,-0.21206951
0.0514082,0.15560694,0.37838864,0.082194574,0.041120864,0.054586038,0.38624537,-0.36841726,-0.32383406,0.13530758,0.012206048,-0.21141887
0.051830273,0.1545982,0.37643385,0.08142941,0.044796463,0.0571878,0.38624537,-0.36841726,-0.32383406,0.13546789,0.012671914,-0.2106893
0.044619557,0.14594366,0.38740635,0.07845538,0.04766913,0.06374529,0.38035005,-0.37941295,-0.29853702,0.13554911,0.013175666,-0.20979571
0.045122873,0.1278102,0.37516284,0.07410125,0.04889835,0.054843433,0.38035005,-0.37941295,-0.29853702,0.13556686,0.0137083605,-0.20910549
0.0468668,0.13064754,0.38053155,0.06554613,0.051806133,0.042799074,0.38078034,-0.37968886,-0.3071866,0.1354106,0.014337473,-0.20865035
0.0418247,0.1404288,0.4006083,0.057690095,0.050642878,0.03870829,0.38078034,-0.37968886,-0.3071866,0.13511781,0.014946021,-0.20829678
0.03210409,0.14477499,0.41311407,0.05434513,0.047774464,0.041290186,0.37254107,-0.37335068,-0.29886627,0.13474262,0.0155214,-0.20788765
0.032948688,0.14703195,0.43334198,0.051844645,0.043446664,0.04112468,0.37254107,-0.37335068,-0.29886627,0.13433357,0.016018119,-0.20750165
0.035666846,0.14589429,0.43410468,0.051667146,0.0393962,0.040988304,0.3885138,-0.38264275,-0.30243492,0.13390683,0.016473047,-0.20711756
0.038262513,0.1402349,0.42138243,0.05179681,0.03622456,0.041481644,0.3885138,-0.38264275,-0.30243492,0.13349748,0.01686402,-0.20674253
0.036343295,0.13684869,0.40518594,0.05060783,0.034949593,0.03834444,0.38070476,-0.37658054,-0.30276406,0.13305256,0.017262593,-0.20643067
0.031257223,0.13618691,0.3866043,0.048451006,0.0373066,0.03665866,0.38070476,-0.37658054,-0.30276406,0.13258095,0.017684426,-0.20615554
0.031077746,0.12807809,0.35797763,0.04289971,0.042823542,0.039055984,0.38121057,-0.37996483,-0.31583774,0.1319829,0.018195797,-0.20580578
0.031372346,0.13000786,0.3607223,0.036459874,0.047975197,0.04156903,0.38121057,-0.37996483,-0.31583774,0.13127041,0.018758308,-0.20540118
0.033328727,0.13065393,0.38711548,0.03440082,0.0474989,0.045462005,0.38950378,-0.37103617,-0.3106935,0.1305003,0.01931851,-0.20492268
0.038624644,0.13181125,0.40209985,0.03353012,0.040388156,0.048554458,0.38950378,-0.37103617,-0.3106935,0.12972598,0.019750398,-0.20439029
0.091086045,0.11018362,0.4279554,0.0343362,0.030373536,0.056797735,0.3735419,-0.37093163,-0.3160684,0.12894782,0.02002874,-0.20369864
0.045589816,0.084356494,0.46688318,0.026851736,0.010865274,0.060813315,0.3735419,-0.37093163,-0.3160684,0.12803558,0.019995622,-0.20297837
-0.015378548,0.13479395,0.3836968,0.028120652,0.0043297745,0.054637942,0.3970337,-0.38303912,-0.31055987,0.1271384,0.019902617,-0.20239139
0.0052402774,0.14932835,0.39697075,0.029210601,0.009890694,0.04860742,0.3970337,-0.38303912,-0.31055987,0.12628144,0.019892301,-0.20193148
0.055792324,0.13898727,0.4275124,0.029055972,0.009076771,0.05676172,0.37752044,-0.37707114,-0.32032716,0.12540081,0.01986343,-0.20128703
0.058202162,0.10561445,0.43477535,0.022786502,-0.0022064354,0.07643817,0.37752044,-0.37707114,-0.32032716,0.12439804,0.01959794,-0.20026636
-0.0012502493,0.10721188,0.3989122,0.021776486,-0.012263615,0.07779083,0.39099962,-0.3628127,-0.33202577,0.12336073,0.019198876,-0.19925952
0.0031120079,0.10821605,0.37411594,0.02786322,-0.006868317,0.057685375,0.39099962,-0.3628127,-0.33202577,0.12247164,0.018920697,-0.19864583
0.03148418,0.10683239,0.4235084,0.03166808,-0.0074545527,0.04018937,0.38532013,-0.37394577,-0.31105435,0.1216554,0.018700153,-0.19838881
0.01864363,0.12078225,0.4363184,0.034670215,-0.011605384,0.025933582,0.38532013,-0.37394577,-0.31105435,0.12092407,0.01844253,-0.19845772
-0.011378424,0.14667517,0.42555904,0.039710842,-0.01718439,0.014372235,0.38234097,-0.36538613,-0.3239994,0.12028657,0.018151835,-0.19878268
0.0011056568,0.15931669,0.4199543,0.045112133,-0.015738126,0.011200869,0.38234097,-0.36538613,-0.3239994,0.119772546,0.017874483,-0.1991725
0.010492798,0.14928304,0.44896078,0.048158534,-0.0147397835,0.01432351,0.38609427,-0.36220062,-0.3149891,0.119301744,0.017619178,-0.19949436
0.0074199885,0.14649312,0.4545536,0.049900148,-0.016910246,0.015055446,0.38609427,-0.36220062,-0.3149891,0.11887949,0.017313808,-0.19980478
0.009444581,0.1429497,0.46992993,0.05036089,-0.021518929,0.013142987,0.38249046,-0.3716029,-0.3328445,0.11845337,0.016963039,-0.2001481
0.012361817,0.14020075,0.48679924,0.05266059,-0.028054073,0.011751939,0.38249046,-0.3716029,-0.3328445,0.11808912,0.016503848,-0.20055294
0.014978446,0.13712825,0.48921657,0.052727725,-0.039015964,0.012062296,0.377801,-0.3711292,-0.32013166,0.11771211,0.015900638,-0.20095468
0.018655866,0.13071778,0.47659254,0.053718228,-0.04647817,0.0083975885,0.377801,-0.3711292,-0.32013166,0.11737316,0.015181493,-0.20147038
0.018433783,0.13089669,0.47279453,0.054882452,-0.051039685,0.0046391394,0.37836087,-0.35924667,-0.31974065,0.11704637,0.014422074,-0.20207763
0.020825153,0.13371304,0.47503042,0.05698514,-0.052356858,0.0024290327,0.37836087,-0.35924667,-0.31974065,0.11677767,0.013632834,-0.20273209
0.023993254,0.13246836,0.47403097,0.06032402,-0.057356007,0.0021885857,0.36844385,-0.35436326,-0.35925925,0.116561495,0.012787428,-0.20340824
0.022260543,0.12894876,0.47646856,0.063950546,-0.063310236,0.0025730897,0.36844385,-0.35436326,-0.35925925,0.11643177,0.011837747,-0.20408297
0.024914,0.1254693,0.49160552,0.06889823,-0.06932546,0.002373688,0.36795962,-0.36935425,-0.3640728,0.11638594,0.0108177215,-0.2047522
0.030840363,0.12419126,0.49786448,0.07516225,-0.075917006,0.00069982186,0.36795962,-0.36935425,-0.3640728,0.116481096,0.009689122,-0.20549417
0.033227995,0.12657137,0.49988365,0.07991733,-0.08424739,-0.001616206,0.36297882,-0.36563486,-0.34261167,0.116658635,0.008462127,-0.20628524
0.038832337,0.12578097,0.5065706,0.08202253,-0.094112344,-0.005261317,0.36297882,-0.36563486,-0.34261167,0.11689746,0.007084403,-0.20719361
0.040249143,0.13047218,0.50855446,0.08130604,-0.10448587,-0.006926976,0.37119794,-0.35359788,-0.33304667,0.11711133,0.005576223,-0.20817041
0.040762205,0.131442,0.5032394,0.07825858,-0.11554884,-0.0071070455,0.37119794,-0.35359788,-0.33304667,0.11728169,0.003891252,-0.20916581
0.04587615,0.1310249,0.49038196,0.07176819,-0.12604366,-0.006846737,0.3633982,-0.35672212,-0.34231937,0.117311455,0.0020691007,-0.21017432
0.047947876,0.129578,0.48433805,0.06461899,-0.1345652,-0.008371249,0.3633982,-0.35672212,-0.34231937,0.11721849,0.00011026114,-0.21123815
0.049241405,0.12886322,0.46292567,0.058912642,-0.13998532,-0.005992461,0.36765897,-0.35692084,-0.34638274,0.11699803,-0.0019178167,-0.21226144
0.05451273,0.124238096,0.44305968,0.05319161,-0.14275053,-0.004856162,0.36765897,-0.35692084,-0.34638274,0.11667975,-0.0040059537,-0.2132678
0.0568147,0.11993174,0.41936302,0.04836268,-0.14150216,-0.004859071,0.35566473,-0.35376817,-0.34707272,0.11625284,-0.0060598254,-0.21426249
0.06197533,0.11472574,0.40613365,0.046251595,-0.1406996,-0.0046922415,0.35566473,-0.35376817,-0.34707272,0.115800045,-0.008119404,-0.21525931
0.065587826,0.11011216,0.38996553,0.042209864,-0.14135996,-0.0052533746,0.36453933,-0.3513322,-0.3594246,0.11525513,-0.01017151,-0.21627188
0.07136961,0.10767377,0.37584853,0.038900565,-0.1364264,-0.0037018508,0.36453933,-0.3513322,-0.3594246,0.11465835,-0.01217252,-0.21723533
0.07729745,0.10050321,0.36651468,0.03362768,-0.13263696,-0.0071157813,0.3537727,-0.3550856,-0.39058602,0.11394764,-0.014093578,-0.21825194
0.078267135,0.10484433,0.3534963,0.026573736,-0.12744382,-0.009217314,0.3537727,-0.3550856,-0.39058602,0.11311575,-0.015950672,-0.21931028
0.08463666,0.10244992,0.3622303,0.017232895,-0.12210029,-0.010434914,0.35766637,-0.34892905,-0.38147712,0.11208705,-0.017711587,-0.22037983
0.094037615,0.101855144,0.36741424,0.0068201423,-0.12012525,-0.011248145,0.35766637,-0.34892905,-0.38147712,0.11086949,-0.019459054,-0.22146153
0.10189838,0.09966173,0.37702847,-0.006708458,-0.11892688,-0.013744779,0.34127277,-0.3485486,-0.37820244,0.10937423,-0.02116786,-0.22256804
0.11026494,0.095883064,0.38823414,-0.018550634,-0.12384908,-0.019820314,0.34127277,-0.3485486,-0.37820244,0.107670374,-0.022951938,-0.22383332
0.11886449,0.10256881,0.41371298,-0.028077573,-0.13217875,-0.02526746,0.35142726,-0.33775175,-0.40756273,0.10577392,-0.024831258,-0.22523451
0.12497826,0.10910233,0.43877316,-0.041728705,-0.14165822,-0.029785916,0.35142726,-0.33775175,-0.40756273,0.103631824,-0.02685704,-0.22673798
0.12595713,0.11484827,0.43556094,-0.057708487,-0.15223213,-0.030340955,0.33445376,-0.33087975,-0.3867917,0.101163454,-0.02902399,-0.22825289
0.129262,0.11873682,0.424505,-0.072722524,-0.15945919,-0.03241707,0.33445376,-0.33087975,-0.3867917,0.09841971,-0.031312257,-0.22983265
0.12866236,0.116612636,0.41591954,-0.08429594,-0.16686997,-0.034683578,0.34354424,-0.32858115,-0.40346932,0.095439084,-0.0336932,-0.23145413
0.12657024,0.113912836,0.4142642,-0.09665109,-0.17332675,-0.035328396,0.34354424,-0.32858115,-0.40346932,0.09223353,-0.036188573,-0.23310351
0.12275764,0.11038878,0.42219305,-0.11110999,-0.17960262,-0.036965452,0.31793368,-0.3084638,-0.43922532,0.088733524,-0.03876321,-0.2347858
0.1225189,0.105259396,0.4222548,-0.12679666,-0.18704532,-0.03811843,0.31793368,-0.3084638,-0.43922532,0.08494369,-0.041466735,-0.2364943
0.13016382,0.099364646,0.40542793,-0.14496161,-0.1941199,-0.03892266,0.3292061,-0.30809474,-0.4211377,0.08078494,-0.044264354,-0.238199
0.13893864,0.090163365,0.38572025,-0.15995088,-0.1982615,-0.042722687,0.3292061,-0.30809474,-0.4211377,0.076354556,-0.047139667,-0.23999381
0.14672507,0.07935989,0.38598752,-0.17388275,-0.19695319,-0.047404,0.2983356,-0.29019988,-0.4356265,0.07164449,-0.049981497,-0.24184513
0.14086205,0.07437433,0.3894081,-0.187271,-0.19356877,-0.048356257,0.2983356,-0.29019988,-0.4356265,0.06668895,-0.052797712,-0.24372005
0.12993039,0.06896205,0.38299632,-0.19742733,-0.1909933,-0.049099848,0.31110382,-0.28160733,-0.43887115,0.06152132,-0.05557023,-0.24557161
0.13422762,0.06308545,0.35929084,-0.20720753,-0.18820469,-0.050724186,0.31110382,-0.28160733,-0.43887115,0.056180403,-0.058325738,-0.2474544
0.14351618,0.0583687,0.35074854,-0.21844253,-0.1864013,-0.054126203,0.29350734,-0.25850314,-0.46967828,0.050611414,-0.061047167,-0.24938321
0.14116469,0.05435893,0.368083,-0.22736982,-0.18180394,-0.057187147,0.29350734,-0.25850314,-0.46967828,0.044888433,-0.06372468,-0.25136042
0.14480801,0.05237574,0.39028215,-0.2355093,-0.18301012,-0.05928524,0.30129635,-0.24619013,-0.4514637,0.038996324,-0.066415876,-0.25335383
0.15118466,0.045152884,0.4200623,-0.24455056,-0.18651193,-0.061187103,0.30129635,-0.24619013,-0.4514637,0.032946445,-0.06918506,-0.25537968
0.1527669,0.03883253,0.44409585,-0.2535448,-0.18542776,-0.0619675,0.28803462,-0.22639304,-0.49075508,0.026707886,-0.071936905,-0.25739288
0.15635605,0.02758247,0.4399593,-0.25788468,-0.18709567,-0.059468746,0.28803462,-0.22639304,-0.49075508,0.020394746,-0.07474297,-0.25933743
0.15717582,0.02041526,0.43654108,-0.2536518,-0.18224548,-0.05484861,0.28873312,-0.21153954,-0.49026716,0.014141784,-0.07747801,-0.26114917
0.16477169,0.012757369,0.42949224,-0.24375919,-0.18034491,-0.052505307,0.28873312,-0.21153954,-0.49026716,0.008094603,-0.08021228,-0.2628975
0.17241614,-0.00040878472,0.42029595,-0.23573759,-0.17803791,-0.04785364,0.29214418,-0.18618104,-0.5326394,0.0021820802,-0.082910195,-0.2645378
0.17156543,-0.013824385,0.3953948,-0.22918531,-0.1712336,-0.04341834,0.29214418,-0.18618104,-0.5326394,-0.0035963082,-0.085531875,-0.2660489
0.16741902,-0.02762221,0.37754226,-0.22399318,-0.16194245,-0.038342193,0.27688247,-0.17122304,-0.53752637,-0.009297818,-0.08801085,-0.26742983
0.17001389,-0.041118387,0.37187648,-0.22120443,-0.15429974,-0.03562604,0.27688247,-0.17122304,-0.53752637,-0.0149357,-0.09039904,-0.26873922
0.17213559,-0.047675822,0.35471392,-0.22076759,-0.14931406,-0.03331663,0.2655236,-0.15929732,-0.54224956,-0.020584792,-0.0927065,-0.26996827
0.1726219,-0.05890287,0.36659026,-0.22279352,-0.14355524,-0.029399026,0.2655236,-0.15929732,-0.54224956,-0.02626836,-0.09494865,-0.27111363
0.1689071,-0.0659816,0.35756683,-0.22110078,-0.14350134,-0.023649469,0.2740327,-0.15050605,-0.54143095,-0.031947605,-0.097178414,-0.27210236
0.16946366,-0.07483178,0.30630445,-0.21877694,-0.14110672,-0.019198805,0.2740327,-0.15050605,-0.54143095,-0.03757764,-0.09938924,-0.2729962
0.17571229,-0.08186053,0.29099774,-0.2158772,-0.13430808,-0.012737706,0.26503015,-0.13090652,-0.5847856,-0.043181382,-0.101484835,-0.2737317
0.17588973,-0.08428869,0.29300857,-0.21207759,-0.12177722,-0.01055143,0.26503015,-0.13090652,-0.5847856,-0.04870053,-0.10341212,-0.27442503
0.17270246,-0.08874413,0.28448367,-0.2101079,-0.10519411,-0.0074769855,0.24925178,-0.10337776,-0.5676569,-0.05420189,-0.10508227,-0.27506018
0.16162556,-0.09282323,0.28002548,-0.20925042,-0.08575111,-0.0026746523,0.24925178,-0.10337776,-0.5676569,-0.059682503,-0.10647741,-0.27559805
0.16557334,-0.10362326,0.31235218,-0.20793429,-0.07248328,-0.00073941983,0.2504561,-0.091908574,-0.58024275,-0.06515545,-0.10766427,-0.2760985
0.16423833,-0.112497665,0.3383124,-0.2046634,-0.07127179,-0.0025936216,0.2504561,-0.091908574,-0.58024275,-0.07054483,-0.108853236,-0.27663493
0.16473532,-0.117186636,0.3441801,-0.21188164,-0.064015284,-0.0033255555,0.25088638,-0.092184514,-0.58889234,-0.07608886,-0.10992633,-0.27716327
0.16026938,-0.12096197,0.35931182,-0.22255558,-0.05623851,-0.003533963,0.25088638,-0.092184514,-0.58889234,-0.08182703,-0.11090337,-0.2777269
0.15748958,-0.12978782,0.37104917,-0.24114728,-0.04479961,-0.0035093352,0.24461788,-0.053444356,-0.58814883,-0.087944515,-0.11170305,-0.2783146
0.15421769,-0.13654514,0.3855536,-0.25927046,-0.03940715,-0.0010206476,0.24461788,-0.053444356,-0.58814883,-0.09441122,-0.1124357,-0.2788396
0.15302172,-0.14796081,0.37896538,-0.27559328,-0.038993627,0.0055943076,0.2535572,-0.044929057,-0.5959797,-0.101232916,-0.11313635,-0.2792132
0.1515137,-0.169436,0.3804841,-0.29147887,-0.043351922,0.0156118125,0.2535572,-0.044929057,-0.5959797,-0.10838254,-0.11389141,-0.27935886
0.14840226,-0.18243682,0.36689138,-0.30503514,-0.039832372,0.02246351,0.26021582,-0.013000652,-0.61626935,-0.11583245,-0.11456387,-0.2793758
0.13134925,-0.19465588,0.40322065,-0.31509206,-0.038728345,0.029389353,0.26021582,-0.013000652,-0.61626935,-0.12348595,-0.11521344,-0.279222
0.13861911,-0.20206696,0.35306644,-0.3245078,-0.047987208,0.04062313,0.2485671,0.0021719784,-0.6122428,-0.13137466,-0.115947366,-0.27879357
0.15461926,-0.21397221,0.31749773,-0.33572412,-0.034148745,0.051724236,0.2485671,0.0021719784,-0.6122428,-0.1394969,-0.11645393,-0.27816057
0.14776298,-0.22338432,0.3051951,-0.34854,-0.017602878,0.058526944,0.2589267,0.022019058,-0.6369852,-0.14790007,-0.116677254,-0.27742267
0.14795129,-0.22995545,0.27836013,-0.35967788,0.0018638889,0.0663399,0.2589267,0.022019058,-0.6369852,-0.15652257,-0.11659722,-0.27657604
0.14932935,-0.22705352,0.24644995,-0.3663063,0.02787396,0.072962016,0.24699885,0.031249821,-0.63315415,-0.16529796,-0.11609359,-0.27564168
0.14736605,-0.232205,0.24535918,-0.37077627,0.051654696,0.081288695,0.24699885,0.031249821,-0.63315415,-0.17415765,-0.11521898,-0.2746477
0.13536772,-0.23413336,0.23803473,-0.3676814,0.07555069,0.088907555,0.24634498,0.07504375,-0.6579032,-0.18297848,-0.113944665,-0.2735963
0.12926097,-0.23680753,0.19479585,-0.34879637,0.095363244,0.09748608,0.24634498,0.07504375,-0.6579032,-0.19142297,-0.11235173,-0.27244306
0.12678495,-0.236216,0.1852858,-0.3186101,0.11767963,0.10038178,0.26210177,0.06589022,-0.6571462,-0.19928023,-0.11040123,-0.27129245
0.10726681,-0.23196965,0.20885158,-0.29063228,0.14067376,0.09852387,0.26210177,0.06589022,-0.6571462,-0.20655023,-0.108137265,-0.2703328
0.09756887,-0.24588789,0.22499514,-0.26472482,0.16151586,0.089772426,0.2467336,0.11151828,-0.63078165,-0.21328628,-0.105599195,-0.26967716
0.09823864,-0.2479262,0.24134493,-0.23764601,0.17861888,0.0772808,0.2467336,0.11151828,-0.63078165,-0.2194299,-0.10289249,-0.2693646
0.12713689,-0.2474938,0.3426721,-0.22394577,0.19182606,0.07696303,0.27106422,0.117234126,-0.62468505,-0.22530675,-0.099983856,-0.26914048
0.12734017,-0.26442453,0.31531143,-0.19628263,0.19245166,0.07987011,0.27106422,0.117234126,-0.62468505,-0.23062728,-0.0970636,-0.26887798
0.11154147,-0.2717067,0.30658913,-0.15911292,0.19094688,0.08068414,0.26333082,0.12018803,-0.6294384,-0.23522915,-0.0941439,-0.26857972
0.08789155,-0.26879707,0.31848025,-0.122614995,0.18999322,0.08129479,0.26333082,0.12018803,-0.6294384,-0.23909594,-0.09124778,-0.26831222
0.09837381,-0.24354891,0.33811307,-0.10186544,0.19216014,0.09305395,0.28041375,0.1438487,-0.6232816,-0.24259081,-0.08823797,-0.26783895
0.09515087,-0.24285309,0.3240881,-0.09181775,0.19188458,0.11721311,0.28041375,0.1438487,-0.6232816,-0.2459251,-0.08510414,-0.2668662
0.099852026,-0.26401842,0.30058074,-0.08867021,0.19702168,0.13771762,0.2848873,0.14351253,-0.6316689,-0.24924973,-0.08175877,-0.26549792
0.11144008,-0.29084554,0.25471854,-0.09034932,0.2098572,0.1522038,0.2848873,0.14351253,-0.6316689,-0.2526129,-0.07815668,-0.26392174
0.12606546,-0.30717382,0.20204806,-0.100711495,0.23677304,0.16284466,0.3045948,0.1557801,-0.6083399,-0.25619677,-0.07409233,-0.26229334
0.123955086,-0.33038974,0.1921792,-0.116579026,0.26704353,0.17404296,0.3045948,0.1557801,-0.6083399,-0.26008072,-0.06954372,-0.26059222
0.11216944,-0.3464138,0.21516633,-0.13957374,0.28938687,0.18223168,0.309349,0.1613858,-0.6165317,-0.26442918,-0.06460944,-0.2588601
0.10784128,-0.3632234,0.20623589,-0.16775467,0.3067268,0.19056764,0.309349,0.1613858,-0.6165317,-0.26931816,-0.05938673,-0.2570815
0.100221984,-0.37891948,0.21211267,-0.20280388,0.3224389,0.19606616,0.317653,0.16112688,-0.6203327,-0.27490544,-0.053884663,-0.25528097
0.09282862,-0.39795354,0.21837854,-0.23384619,0.33346888,0.19705364,0.317653,0.16112688,-0.6203327,-0.28107715,-0.048226766,-0.2535932
0.09008973,-0.41670278,0.20622897,-0.26809663,0.3474815,0.18839276,0.32636714,0.17896721,-0.61489606,-0.28790802,-0.04240623,-0.2521882
0.08986912,-0.42406487,0.21688914,-0.3063861,0.36402094,0.18029062,0.32636714,0.17896721,-0.61489606,-0.29545102,-0.036417626,-0.25111365
0.08694077,-0.4376018,0.22594953,-0.3405627,0.36990392,0.16487046,0.34201753,0.20048372,-0.582886,-0.30364886,-0.030433133,-0.25044894
0.065492764,-0.44843084,0.21804667,-0.37562594,0.37497646,0.14978555,0.34201753,0.20048372,-0.582886,-0.31249508,-0.024497546,-0.25017834
0.060869776,-0.4583829,0.23227358,-0.40498814,0.37325713,0.13266161,0.37202913,0.21733262,-0.59776235,-0.3219084,-0.018695727,-0.2503023
0.056308895,-0.46506742,0.20723414,-0.4312663,0.37158707,0.118378274,0.37202913,0.21733262,-0.59776235,-0.33180627,-0.013042897,-0.25077796
0.073668525,-0.4623967,0.23274302,-0.45208073,0.369845,0.10691676,0.36065024,0.24763359,-0.5845984,-0.34211504,-0.0074948,-0.2515273
0.08095629,-0.47782895,0.22257209,-0.46389765,0.36247185,0.09335478,0.36065024,0.24763359,-0.5845984,-0.35263065,-0.002179958,-0.2525828
0.072423264,-0.4866039,0.20415425,-0.4684713,0.35524583,0.07331977,0.3895762,0.27435946,-0.56890666,-0.36323482,0.002873212,-0.2540555
0.075000346,-0.5028252,0.22239494,-0.46269232,0.33845845,0.053695217,0.3895762,0.27435946,-0.56890666,-0.37370127,0.007503245,-0.25585508
0.06360357,-0.50665146,0.20729446,-0.45083362,0.31787097,0.028619021,0.4147365,0.30708623,-0.55328166,-0.38393694,0.011634897,-0.25807738
0.06093981,-0.50186986,0.22636485,-0.4455914,0.29398102,0.0109323505,0.4147365,0.30708623,-0.55328166,-0.39405295,0.015254691,-0.26048923
0.06906254,-0.51350266,0.21746802,-0.43904597,0.26583347,-0.008975282,0.42431116,0.32437575,-0.56514573,-0.40405223,0.018311854,-0.263098
0.06899818,-0.50064886,0.23098445,-0.42870688,0.2410512,-0.025591854,0.42431116,0.32437575,-0.56514573,-0.41383272,0.020848304,-0.26588464
0.057870284,-0.50432396,0.1733098,-0.41725224,0.21948844,-0.037359223,0.44088674,0.35141963,-0.54591525,-0.42340332,0.022978466,-0.26875567
0.06183154,-0.51428854,0.16165781,-0.3977651,0.2000341,-0.04411135,0.44088674,0.35141963,-0.54591525,-0.43257928,0.024749659,-0.27162194
0.08330075,-0.51553047,0.18387222,-0.36904785,0.1636927,-0.053462595,0.43341237,0.37868947,-0.532586,-0.441209,0.02595178,-0.2743814
0.074661665,-0.50851095,0.18550754,-0.3468347,0.10991881,-0.045828648,0.43341237,0.37868947,-0.532586,-0.44940472,0.026513726,-0.2765751
0.05239795,-0.51601076,0.1945517,-0.3218909,0.044335775,-0.033751715,0.42623878,0.3935271,-0.5369482,-0.45714545,0.026372988,-0.27796817
0.04683349,-0.53055924,0.19542027,-0.30046177,-0.01890019,-0.030483954,0.42623878,0.3935271,-0.5369482,-0.46446618,0.025452614,-0.27879953
0.043872174,-0.54062945,0.18717599,-0.28336978,-0.06851864,-0.03665006,0.42252856,0.41479486,-0.52355206,-0.471473,0.023858778,-0.27928758
0.049320836,-0.545731,0.15731287,-0.26840317,-0.10134367,-0.044897042,0.42252856,0.41479486,-0.52355206,-0.47817466,0.021753859,-0.27964067
0.050473064,-0.5518762,0.13073492,-0.25391996,-0.12326214,-0.051779985,0.42755258,0.43552893,-0.5226064,-0.48460677,0.019316208,-0.27990294
0.056161143,-0.5557331,0.09273958,-0.24046749,-0.14186569,-0.05728221,0.42755258,0.43552893,-0.5226064,-0.49076235,0.0165754,-0.2800777
0.05871772,-0.5586967,0.036721945,-0.22414383,-0.1572671,-0.061904475,0.4168939,0.4623093,-0.5268402,-0.49661213,0.013608616,-0.28018308
0.061433494,-0.5681534,-0.010815144,-0.20747232,-0.16592944,-0.0638593,0.4168939,0.4623093,-0.5268402,-0.5021218,0.010500945,-0.28021193
0.057271898,-0.5700926,-0.04104817,-0.1910232,-0.1696249,-0.06360932,0.41206408,0.45981193,-0.51422584,-0.50732327,0.007365115,-0.28016353
0.052191272,-0.5767313,-0.061573744,-0.17723022,-0.17250076,-0.063004225,0.41206408,0.45981193,-0.51422584,-0.5122414,0.004188463,-0.28007388
0.05668474,-0.58495784,-0.08333874,-0.16767894,-0.16749522,-0.06565895,0.40723592,0.49150866,-0.5482776,-0.5169816,0.0010549501,-0.2800498
0.06003266,-0.5910873,-0.09341359,-0.16158886,-0.15897545,-0.06998912,0.40723592,0.49150866,-0.5482776,-0.52158153,-0.002041243,-0.280169
0.06463434,-0.596511,-0.10142803,-0.15586193,-0.15086707,-0.07215845,0.3939526,0.49548808,-0.52301574,-0.52607703,-0.005053997,-0.28037572
0.05329217,-0.6007304,-0.09378791,-0.15023175,-0.14634848,-0.06831817,0.3939526,0.49548808,-0.52301574,-0.5304495,-0.007982641,-0.28055096
0.046766523,-0.5988365,-0.09309876,-0.14683455,-0.14480503,-0.06478534,0.37442863,0.51064366,-0.52384114,-0.5347716,-0.010838434,-0.28064752
0.046878476,-0.6046086,-0.09483945,-0.1464804,-0.14181745,-0.06268116,0.37442863,0.51064366,-0.52384114,-0.5390741,-0.013648078,-0.28073764
0.050851967,-0.6072464,-0.11751151,-0.14851512,-0.13331151,-0.06197571,0.37824827,0.51990855,-0.5103096,-0.5434269,-0.016336925,-0.28088355
0.060776867,-0.61441624,-0.13543499,-0.15438554,-0.12844358,-0.06240443,0.37824827,0.51990855,-0.5103096,-0.54787934,-0.018988848,-0.28106904
0.068965316,-0.6193704,-0.14781749,-0.15955709,-0.12740481,-0.0614964,0.36896664,0.5335661,-0.5538614,-0.5524486,-0.021605067,-0.28118563
0.072866976,-0.6199981,-0.18228221,-0.16617797,-0.12547266,-0.06049277,0.36896664,0.5335661,-0.5538614,-0.55713516,-0.02420099,-0.28133678
0.0701273,-0.623452,-0.2030468,-0.16752075,-0.1202735,-0.057185292,0.38107795,0.5517585,-0.53518724,-0.5618626,-0.026683412,-0.28147316
0.069605626,-0.6247352,-0.22388923,-0.17071508,-0.11706533,-0.054463036,0.38107795,0.5517585,-0.53518724,-0.5666413,-0.029109664,-0.28157687
0.06447049,-0.62467384,-0.24078286,-0.17336787,-0.109756686,-0.054000683,0.3612764,0.5609746,-0.5362065,-0.57148224,-0.031434186,-0.28170824
0.06605987,-0.6229227,-0.23511124,-0.17648771,-0.100215174,-0.056704663,0.3612764,0.5609746,-0.5362065,-0.57636184,-0.03369973,-0.28199196
0.07421149,-0.6259202,-0.20977974,-0.17603432,-0.08953275,-0.0585962,0.3464433,0.5756566,-0.5497447,-0.5812366,-0.035857484,-0.28235602
0.06907648,-0.6268701,-0.18956995,-0.16989662,-0.07974546,-0.06328678,0.3464433,0.5756566,-0.5497447,-0.58596385,-0.03798189,-0.28293228
0.06812853,-0.6341759,-0.16929293,-0.16211946,-0.069932275,-0.06571376,0.34911102,0.58871794,-0.51016426,-0.59054035,-0.040017754,-0.28364348
0.07584449,-0.6386497,-0.14748824,-0.15424222,-0.06691668,-0.067837276,0.34911102,0.58871794,-0.51016426,-0.59494305,-0.042065173,-0.2844038
0.08406116,-0.6397764,-0.13892066,-0.14730431,-0.068257615,-0.068092026,0.33399886,0.5974593,-0.5238979,-0.59922296,-0.044120707,-0.28510642
0.08359241,-0.6429827,-0.14531195,-0.13728222,-0.07293155,-0.064539604,0.33399886,0.5974593,-0.5238979,-0.6033,-0.046197683,-0.28572655
0.08199385,-0.6534302,-0.1639576,-0.12856513,-0.07806228,-0.059824653,0.33013904,0.6249449,-0.5016551,-0.6072285,-0.048257075,-0.28622818
0.080706105,-0.6570762,-0.19283748,-0.1201808,-0.08239008,-0.057999842,0.33013904,0.6249449,-0.5016551,-0.61098504,-0.05035516,-0.2866211
0.083149366,-0.65641755,-0.20958757,-0.11384146,-0.08288234,-0.058123514,0.3379373,0.62806916,-0.4923824,-0.61463004,-0.052447796,-0.28701806
0.0848857,-0.65551615,-0.24345648,-0.10874902,-0.07904786,-0.05806499,0.3379373,0.62806916,-0.4923824,-0.6181584,-0.054513827,-0.28742862
0.08827079,-0.6563901,-0.26584816,-0.10356048,-0.072851405,-0.059049554,0.32578278,0.6466261,-0.47528374,-0.6215902,-0.05651404,-0.2879486
0.089768045,-0.6590237,-0.28929937,-0.09540756,-0.06673084,-0.058434926,0.32578278,0.6466261,-0.47528374,-0.6248434,-0.05845636,-0.28848243
0.096287124,-0.65888464,-0.29806912,-0.08659229,-0.06019321,-0.055950485,0.32317978,0.63964283,-0.5103431,-0.6279329,-0.060283348,-0.28899598
0.09854015,-0.66360056,-0.29290712,-0.08001776,-0.055311456,-0.054536924,0.32317978,0.63964283,-0.5103431,-0.6308765,-0.06205477,-0.28958058
0.10116255,-0.6654747,-0.31851137,-0.07389264,-0.042145405,-0.050944775,0.31527513,0.66718864,-0.4883641,-0.6337037,-0.063625395,-0.29026484
0.09975561,-0.6747939,-0.286211,-0.06502113,-0.031667255,-0.046708345,0.31527513,0.66718864,-0.4883641,-0.636338,-0.06504327,-0.2909813
0.09687077,-0.6842507,-0.26046765,-0.053283654,-0.031365447,-0.04589697,0.30229092,0.6587347,-0.48079395,-0.6387543,-0.06643495,-0.29165888
0.103543274,-0.6868539,-0.27118897,-0.041938506,-0.027490534,-0.04512822,0.30229092,0.6587347,-0.48079395,-0.6409305,-0.06779094,-0.29238915
0.10875013,-0.6931709,-0.24848378,-0.032436952,-0.024282366,-0.045521997,0.30299103,0.67358816,-0.48030603,-0.6429277,-0.06910649,-0.2931533
0.12076613,-0.69207317,-0.23248196,-0.027816154,-0.028280694,-0.04737831,0.30299103,0.67358816,-0.48030603,-0.6448222,-0.07050526,-0.29390192
0.13227905,-0.686875,-0.24531901,-0.026990563,-0.033917867,-0.04926402,0.3076712,0.6823011,-0.4840753,-0.6467162,-0.07197654,-0.29461026
0.1408445,-0.68721896,-0.26368606,-0.026524998,-0.029697526,-0.050823756,0.3076712,0.6823011,-0.4840753,-0.6485808,-0.07344125,-0.29538894
0.1360981,-0.6885923,-0.27825713,-0.023950659,-0.023587605,-0.052298218,0.29972196,0.6853936,-0.48450303,-0.65039766,-0.07485093,-0.29624057
0.1395232,-0.69324946,-0.297907,-0.018318161,-0.016153421,-0.053714164,0.29972196,0.6853936,-0.48450303,-0.6520795,-0.0762191,-0.2972114
0.14550383,-0.6977835,-0.31953502,-0.00910677,-0.009891003,-0.04975366,0.30376667,0.6853322,-0.48424065,-0.6535905,-0.07745482,-0.298172
0.14860362,-0.69903016,-0.32920766,0.0027018264,-0.00524047,-0.047116674,0.30376667,0.6853322,-0.48424065,-0.6548539,-0.07862078,-0.29916334
0.15236466,-0.7050044,-0.32694292,0.013323128,-0.0031810142,-0.046843395,0.29963553,0.69768953,-0.4711368,-0.6559177,-0.07974909,-0.30017853
0.1603283,-0.70681834,-0.32923424,0.020060472,3.4246594e-05,-0.04769291,0.29963553,0.69768953,-0.4711368,-0.6568302,-0.080871314,-0.30123663
0.1642611,-0.7094932,-0.3265264,0.01956952,0.0033179563,-0.05105388,0.2994967,0.6947186,-0.4712354,-0.657755,-0.08199464,-0.30237293
0.16746004,-0.7156313,-0.3244586,0.01894975,0.004898279,-0.056049787,0.2994967,0.6947186,-0.4712354,-0.6586688,-0.08318728,-0.30361056
0.16455889,-0.7124843,-0.3341254,0.017404515,-0.0010722624,-0.058713242,0.2905466,0.6953909,-0.4544593,-0.6596279,-0.08446647,-0.30481315
0.15772979,-0.7078467,-0.35443687,0.021181054,-0.006695602,-0.05743686,0.2905466,0.6953909,-0.4544593,-0.6605079,-0.08579996,-0.30593467
0.15370974,-0.7044832,-0.36763895,0.029427122,-0.009143045,-0.052364953,0.28714794,0.6950377,-0.4676968,-0.66124827,-0.08707413,-0.30692506
0.14851432,-0.7049734,-0.37649012,0.039106596,-0.009185957,-0.04869204,0.28714794,0.6950377,-0.4676968,-0.6617904,-0.08831069,-0.30788422
0.14639263,-0.70193624,-0.373075,0.04702012,-0.008604685,-0.046410166,0.29246193,0.71252596,-0.47549927,-0.6621912,-0.08949587,-0.30881405
0.14179468,-0.6987104,-0.38005543,0.050623145,-0.004102042,-0.040729463,0.29246193,0.71252596,-0.47549927,-0.6625113,-0.090568274,-0.30971217
0.14588116,-0.7025525,-0.3791026,0.050305285,0.003608415,-0.03290167,0.29118198,0.7041651,-0.45849097,-0.66285264,-0.09143758,-0.31057906
0.1451502,-0.7042306,-0.37885952,0.044657685,0.0058483877,-0.0255659,0.29118198,0.7041651,-0.45849097,-0.6633019,-0.09219357,-0.31136513
0.14596908,-0.7042592,-0.38700604,0.039099675,0.009769404,-0.020858899,0.29332232,0.7119752,-0.4928,-0.6638757,-0.09282975,-0.31210136
0.14745887,-0.701747,-0.38670647,0.034093454,0.014447244,-0.018250521,0.29332232,0.7119752,-0.4928,-0.6645337,-0.09339498,-0.31287742
0.14946803,-0.69800293,-0.38086855,0.02949489,0.016992927,-0.017831594,0.29947513,0.7130927,-0.45334828,-0.6652921,-0.09391536,-0.3136902
0.15453462,-0.6957584,-0.3754015,0.027480528,0.016914548,-0.016756993,0.29947513,0.7130927,-0.45334828,-0.66607934,-0.09443548,-0.31447172
0.15500078,-0.6938803,-0.35617292,0.025312796,0.01609566,-0.015630491,0.28002822,0.72514105,-0.45859623,-0.6669247,-0.09493512,-0.31522918
0.156457,-0.69485027,-0.3325318,0.023396414,0.011776727,-0.01401091,0.28002822,0.72514105,-0.45859623,-0.66780365,-0.09546955,-0.31590867
0.15762125,-0.69502133,-0.32484555,0.021970771,7.893285e-05,-0.012569282,0.28551334,0.71803737,-0.49312913,-0.66874105,-0.09608944,-0.31638956
0.16442394,-0.69228107,-0.33260238,0.02027028,-0.0054461667,-0.008598454,0.28551334,0.71803737,-0.49312913,-0.6697136,-0.09672198,-0.3167851
0.16433805,-0.6957959,-0.32441378,0.018276062,-0.010575833,-0.002911128,0.28797758,0.7220497,-0.4581685,-0.6707546,-0.097311854,-0.3170359
0.1578771,-0.70178753,-0.33212113,0.015687872,-0.012158284,0.004431527,0.28797758,0.7220497,-0.4581685,-0.67184895,-0.097825944,-0.3171575
0.15471342,-0.707943,-0.3351438,0.010327499,-0.011362448,0.008788714,0.279598,0.725417,-0.44994485,-0.6730678,-0.098256245,-0.3172233
0.15510353,-0.70681775,-0.35072446,0.002773799,-0.010651374,0.0058633573,0.279598,0.725417,-0.44994485,-0.67441744,-0.098734856,-0.31733966
0.1642686,-0.70737296,-0.34381795,-0.006509356,-0.01022402,0.0028760321,0.2861271,0.7451869,-0.4792751,-0.6759568,-0.09923917,-0.31750226
0.16667719,-0.7076979,-0.34768045,-0.012420468,-0.005303953,0.0011931639,0.2861271,0.7451869,-0.4792751,-0.6775909,-0.09973207,-0.31774902
0.1693601,-0.70342636,-0.3583293,-0.013857238,0.0017518192,0.004093364,0.28513706,0.73357916,-0.47101498,-0.6792607,-0.1000998,-0.3180163
0.16459674,-0.70168376,-0.36673427,-0.006217718,0.013263066,0.0073661525,0.28513706,0.73357916,-0.47101498,-0.68075716,-0.100318834,-0.31839108
0.16349255,-0.7038097,-0.36909258,0.007674478,0.023936983,0.012193378,0.28540695,0.7487075,-0.46187747,-0.6819852,-0.100348756,-0.31882572
0.16359521,-0.70499545,-0.36572695,0.0245663,0.030909767,0.01859834,0.28540695,0.7487075,-0.46187747,-0.6828691,-0.10022999,-0.31924582
0.16282561,-0.7057634,-0.3385135,0.041651145,0.031217959,0.024011854,0.28852654,0.7431188,-0.44883382,-0.6834369,-0.10001652,-0.3195927
0.17145178,-0.70831245,-0.33120418,0.05556852,0.028701358,0.029805105,0.28852654,0.7431188,-0.44883382,-0.6837315,-0.099757075,-0.31982303
0.18130064,-0.71485376,-0.3093754,0.0628329,0.029464921,0.034368314,0.28512782,0.74276674,-0.46207297,-0.6839015,-0.0994107,-0.31998038
0.17711718,-0.7220151,-0.29077888,0.06201297,0.024662953,0.03568972,0.28512782,0.74276674,-0.46207297,-0.6840848,-0.099105746,-0.3200767
0.1699212,-0.7251706,-0.2888446,0.059154972,0.020395089,0.0344324,0.2850523,0.7458751,-0.45764887,-0.68434,-0.09884845,-0.3201337
0.17417082,-0.71793437,-0.3139739,0.058758225,0.014611093,0.032976735,0.2850523,0.7458751,-0.45764887,-0.68459684,-0.098682776,-0.32014942
0.17934766,-0.712088,-0.33080947,0.060209043,0.009642439,0.033691987,0.28368604,0.7498102,-0.42727602,-0.68484503,-0.09854272,-0.32011676
0.17479312,-0.70809466,-0.33249545,0.0625249,0.00034917705,0.0336189,0.28368604,0.7498102,-0.42727602,-0.68504846,-0.09850907,-0.3199532
0.16093665,-0.7082728,-0.34856462,0.05999567,-0.009642746,0.035736058,0.29654062,0.7461068,-0.44388676,-0.6853309,-0.09853046,-0.3196423
0.15580128,-0.7129757,-0.39138865,0.056642946,-0.015865445,0.03636101,0.29654062,0.7461068,-0.44388676,-0.6856776,-0.098617315,-0.31924486
0.16057542,-0.71605045,-0.44441497,0.052281465,-0.018430632,0.03842653,0.26779813,0.7468063,-0.43707502,-0.6861289,-0.09868646,-0.31877685
0.1672196,-0.7197406,-0.4780929,0.04997484,-0.01751528,0.03944552,0.26779813,0.7468063,-0.43707502,-0.68661475,-0.0987442,-0.31831455
0.176219,-0.7218873,-0.4938947,0.04987644,-0.012234533,0.040416315,0.2960348,0.74948996,-0.43081295,-0.68710846,-0.09872216,-0.31791663
0.17288253,-0.7306642,-0.49604642,0.04380104,-0.0056486726,0.041772936,0.2960348,0.74948996,-0.43081295,-0.68770343,-0.09862815,-0.31756258
0.17110924,-0.7394375,-0.48875904,0.037019428,0.0022362722,0.04132938,0.29646504,0.7492151,-0.4394642,-0.68843204,-0.09844959,-0.31731057
0.18794607,-0.72489655,-0.5105274,0.044552572,-0.004973064,0.04698281,0.29646504,0.7492151,-0.4394642,-0.68902,-0.09827213,-0.3168893
0.1645232,-0.7437239,-0.46290517,0.04445459,-0.009716868,0.050968204,0.2881719,0.7402864,-0.4446069,-0.6896345,-0.09807022,-0.3163309
0.14520618,-0.75062335,-0.44790125,0.038487036,-0.0075850654,0.04876048,0.2881719,0.7402864,-0.4446069,-0.69034857,-0.09789179,-0.31585288
0.1335931,-0.7451026,-0.42529166,0.039686713,-0.0029384336,0.0493947,0.2729841,0.75213605,-0.4539163,-0.6910449,-0.09764545,-0.31539917
0.13542143,-0.7447618,-0.38880205,0.04040216,-0.0015109656,0.050109424,0.2729841,0.75213605,-0.4539163,-0.6917148,-0.09738679,-0.31497526
0.14411172,-0.7369608,-0.42005873,0.04681682,0.001968511,0.05051511,0.27760875,0.74558324,-0.47115028,-0.6922652,-0.09707533,-0.31454706
0.14635658,-0.7341483,-0.43854618,0.05692178,0.0029899045,0.051078364,0.27760875,0.74558324,-0.47115028,-0.6926043,-0.09675777,-0.31416345
0.14996116,-0.73277944,-0.43382096,0.062389575,0.00801282,0.049044624,0.2843969,0.7554761,-0.43573165,-0.6928368,-0.09640765,-0.3138833
0.14900813,-0.7221071,-0.4328823,0.06819579,0.009144509,0.045789577,0.2843969,0.7554761,-0.43573165,-0.69293606,-0.09610732,-0.3136506
0.14616872,-0.72305053,-0.4231776,0.07928371,0.007715268,0.044928946,0.2966054,0.75218606,-0.43936563,-0.69282866,-0.09582059,-0.31342173
0.14152479,-0.72573805,-0.4244069,0.09392345,0.005852289,0.046861526,0.2966054,0.75218606,-0.43936563,-0.6924266,-0.09553686,-0.31313372
0.14188987,-0.7255658,-0.4335109,0.11378363,0.0021025687,0.04886561,0.28562284,0.74857,-0.46620154,-0.6916525,-0.09524804,-0.31274676
0.14306962,-0.7202148,-0.4430256,0.13637005,-0.002772457,0.05184658,0.28562284,0.74857,-0.46620154,-0.690433,-0.094976455,-0.31228256
0.14591107,-0.7182681,-0.44766438,0.15742382,-0.010605622,0.057124246,0.29784054,0.7360924,-0.47878063,-0.68882877,-0.09469277,-0.3116157
0.15007673,-0.7198665,-0.4496541,0.17705908,-0.017167723,0.062030647,0.29784054,0.7360924,-0.47878063,-0.68684286,-0.09441601,-0.31082988
0.14941071,-0.7211155,-0.46203506,0.19528612,-0.023162026,0.06634917,0.2881071,0.73420715,-0.4491279,-0.68452406,-0.09412451,-0.30991173
0.15007639,-0.72198653,-0.46821988,0.21257867,-0.025438882,0.07292706,0.2881071,0.73420715,-0.4491279,-0.68186647,-0.09377542,-0.30886674
0.14732708,-0.7198778,-0.4626763,0.23030448,-0.025089905,0.07906853,0.28904158,0.730548,-0.47085118,-0.6788801,-0.093324095,-0.30772853
0.1350524,-0.7148863,-0.4528296,0.25019613,-0.025168639,0.082404345,0.28904158,0.730548,-0.47085118,-0.6754954,-0.09284225,-0.30654478
0.12400596,-0.7050717,-0.43385386,0.2756739,-0.022084596,0.08659999,0.2928813,0.7214376,-0.47520685,-0.67162216,-0.09226067,-0.30533314
0.12431699,-0.6996882,-0.41291988,0.3056447,-0.017771693,0.08938262,0.2928813,0.7214376,-0.47520685,-0.667145,-0.09161422,-0.3041277
0.13125497,-0.6908621,-0.3525803,0.33008686,-0.011069506,0.09261966,0.29617214,0.691257,-0.48889554,-0.6621935,-0.09084687,-0.30292082
0.13473444,-0.6970075,-0.34138262,0.3483034,-0.011927761,0.09704331,0.29617214,0.691257,-0.48889554,-0.65687966,-0.09004517,-0.30165982
0.14296594,-0.69500875,-0.30152178,0.3622248,-0.013258055,0.096765794,0.2852651,0.68453383,-0.52015376,-0.6513035,-0.0892559,-0.30034542
0.14351572,-0.6868336,-0.25619662,0.37087452,-0.011716034,0.09509458,0.2852651,0.68453383,-0.52015376,-0.64554083,-0.08849473,-0.29910517
0.12939072,-0.6786022,-0.25714695,0.3952078,-0.016277194,0.09518779,0.30066717,0.67254674,-0.51516986,-0.6393152,-0.08777501,-0.29780507
0.12017138,-0.66785586,-0.22013819,0.4266288,-0.020972414,0.097012594,0.30066717,0.67254674,-0.51516986,-0.6324671,-0.08710222,-0.29641867
0.12067096,-0.65962046,-0.22190368,0.46381718,-0.026370551,0.09653488,0.285006,0.6602179,-0.5382364,-0.62490237,-0.0864912,-0.29496217
0.11813955,-0.6538241,-0.22573352,0.50644004,-0.030956887,0.097150825,0.285006,0.6602179,-0.5382364,-0.6164923,-0.08594696,-0.29345036
0.11174487,-0.64226514,-0.23718476,0.55496204,-0.0411421,0.095593475,0.28268057,0.62498236,-0.5264325,-0.6071455,-0.08553544,-0.29183888
0.118931234,-0.6244003,-0.215191,0.59759766,-0.050068296,0.09657354,0.28268057,0.62498236,-0.5264325,-0.5969586,-0.08523929,-0.29011726
0.123833954,-0.6148223,-0.19922507,0.63279665,-0.04892065,0.09821615,0.29009014,0.59163326,-0.54428124,-0.5860899,-0.08491579,-0.28836727
0.11943738,-0.6143552,-0.16318154,0.6589469,-0.049940623,0.10143148,0.29009014,0.59163326,-0.54428124,-0.57470113,-0.084597275,-0.28655887
0.123435006,-0.6149791,-0.11783552,0.6740211,-0.050841432,0.1033879,0.28543162,0.56454515,-0.5583992,-0.5630306,-0.08427395,-0.28470087
0.13329396,-0.6135213,-0.082689285,0.6689352,-0.050205544,0.1044919,0.28543162,0.56454515,-0.5583992,-0.5514507,-0.083966896,-0.28282976
0.13096286,-0.6124583,-0.10332537,0.6579929,-0.04625935,0.10360902,0.27686858,0.5404881,-0.57268083,-0.54009205,-0.083635,-0.2810104
0.1311787,-0.60124224,-0.10343301,0.6411247,-0.039368846,0.101386465,0.27686858,0.5404881,-0.57268083,-0.52904403,-0.083284974,-0.27929044
0.1301236,-0.5946436,-0.102194786,0.6220197,-0.027249373,0.09825589,0.29527152,0.5015662,-0.57263744,-0.5183659,-0.08283526,-0.27774334
0.12543137,-0.5788801,-0.086505294,0.60401505,-0.021513965,0.09435628,0.29527152,0.5015662,-0.57263744,-0.50801927,-0.08239369,-0.27630568
0.12782876,-0.5701387,-0.06491256,0.57501376,-0.01001513,0.09692706,0.26621753,0.46268293,-0.5973697,-0.49824923,-0.081786945,-0.27488065
0.11426473,-0.57477325,-0.06824887,0.55942404,-0.0035285726,0.09789256,0.26621753,0.46268293,-0.5973697,-0.48877165,-0.08111888,-0.2735331
0.11828107,-0.5604092,-0.028841853,0.5420381,0.0034647812,0.09569887,0.2990234,0.44354793,-0.6218064,-0.4796377,-0.080389395,-0.27226925
0.12089428,-0.5459871,0.0007340908,0.5157555,0.009061877,0.098470114,0.2990234,0.44354793,-0.6218064,-0.47101146,-0.07958713,-0.27100682
0.08149699,-0.5219467,-0.0019891262,0.4918263,0.010354223,0.103324614,0.28497517,0.42659456,-0.6015533,-0.46287656,-0.078715235,-0.26966548
0.10499294,-0.5199384,0.05528164,0.46430898,0.0018188488,0.11573229,0.28497517,0.42659456,-0.6015533,-0.45530403,-0.07784553,-0.2680087
0.14885029,-0.52791965,0.096874,0.46187648,-0.0070392573,0.10581489,0.2886206,0.39924747,-0.6194706,-0.44777963,-0.07718918,-0.26644182
0.17066418,-0.51504934,0.093462706,0.4621379,-0.0048790816,0.09016858,0.2886206,0.39924747,-0.6194706,-0.44020784,-0.076691315,-0.26518512
0.15910627,-0.50278145,0.06254053,0.45727456,0.0046454133,0.07810436,0.2916847,0.37839192,-0.61989164,-0.43271258,-0.07618995,-0.26422286
0.14722851,-0.4922986,0.07507825,0.44465736,0.019637909,0.074503735,0.2916847,0.37839192,-0.61989164,-0.4254364,-0.075554445,-0.26344728
0.13666351,-0.49783796,0.07901931,0.43463358,0.031204483,0.073222585,0.3033334,0.3632193,-0.6239182,-0.41835776,-0.07477556,-0.26279116
0.13106485,-0.49475703,0.10546565,0.43001133,0.035677336,0.068325184,0.3033334,0.3632193,-0.6239182,-0.41134685,-0.0740048,-0.26224542
0.14042944,-0.47916985,0.1123271,0.42631617,0.03442648,0.06705436,0.28568143,0.33686364,-0.62152064,-0.4044188,-0.0732526,-0.26169252
0.14655681,-0.469749,0.12319279,0.4231036,0.032130472,0.06833631,0.28568143,0.33686364,-0.62152064,-0.39754763,-0.072536275,-0.26110578
0.14177169,-0.46637404,0.12567592,0.42478082,0.033486303,0.06574832,0.3052795,0.31859857,-0.62511945,-0.39064896,-0.07181665,-0.26057243
0.13763662,-0.4601539,0.12718129,0.42486852,0.036877472,0.06380938,0.3052795,0.31859857,-0.62511945,-0.38373175,-0.07108775,-0.26009464
0.1384504,-0.45682096,0.13561773,0.42567608,0.041514173,0.059380956,0.29237092,0.30703625,-0.6219734,-0.37679866,-0.070326924,-0.259732
0.13429877,-0.4490564,0.14541173,0.42732915,0.043226782,0.056130677,0.29237092,0.30703625,-0.6219734,-0.369815,-0.069588125,-0.25943494
0.13433221,-0.43820277,0.17020988,0.4254222,0.044904277,0.054011665,0.29842502,0.2684335,-0.6183913,-0.36287552,-0.06883362,-0.25915885
0.13381393,-0.42515045,0.20305824,0.42225116,0.045910064,0.050624214,0.29842502,0.2684335,-0.6183913,-0.355981,-0.06810987,-0.25897384
0.12937395,-0.41541812,0.24206209,0.41391802,0.041350324,0.049748488,0.30254388,0.26526496,-0.62255144,-0.3492639,-0.067442164,-0.25877333
0.10868838,-0.40822953,0.26493955,0.40171352,0.02942981,0.052686557,0.30254388,0.26526496,-0.62255144,-0.34278974,-0.06692582,-0.25842643
0.10841236,-0.40208402,0.30070257,0.38708508,0.013211288,0.059104495,0.28532213,0.23863335,-0.6288068,-0.33663735,-0.0665655,-0.25781727
0.13002694,-0.39665788,0.3225286,0.3754374,-0.009052254,0.057499215,0.28532213,0.23863335,-0.6288068,-0.33071426,-0.06653638,-0.25712085
0.14668009,-0.37431505,0.32033086,0.36433524,-0.020045001,0.051255524,0.28662366,0.2286201,-0.6637008,-0.32501608,-0.066694945,-0.25645852
0.15600808,-0.34968495,0.27096605,0.3499009,-0.018142302,0.048448533,0.28662366,0.2286201,-0.6637008,-0.31958523,-0.066866666,-0.25588584
0.16397615,-0.33357525,0.25237823,0.3375554,-0.0010279315,0.046551436,0.29526997,0.20618823,-0.61611736,-0.31439546,-0.06680901,-0.2554512
0.16174589,-0.323243,0.26079035,0.332935,0.01611091,0.048113286,0.29526997,0.20618823,-0.61611736,-0.30927905,-0.066521764,-0.25509286
0.15403165,-0.31273508,0.25676966,0.3338779,0.028977277,0.054249465,0.2999702,0.19652703,-0.6377739,-0.3041595,-0.06600249,-0.25468206
0.14343143,-0.30687532,0.24708724,0.34019518,0.029114172,0.06343308,0.2999702,0.19652703,-0.6377739,-0.29892173,-0.06543182,-0.25408745
0.14074613,-0.30637145,0.21976185,0.35257426,0.029742258,0.07403343,0.2989154,0.17884114,-0.63403463,-0.2934702,-0.06476849,-0.25327158
0.13899812,-0.3040418,0.1850369,0.37008983,0.0341722,0.08379565,0.2989154,0.17884114,-0.63403463,-0.28767833,-0.06399545,-0.25228596
0.13019496,-0.2956358,0.15223598,0.39166057,0.0385344,0.09330472,0.3062294,0.16697447,-0.6295754,-0.28148717,-0.06309134,-0.25113082
0.11726254,-0.2877564,0.15205288,0.417674,0.044747878,0.10234428,0.3062294,0.16697447,-0.6295754,-0.27478567,-0.062063023,-0.24981308
0.09945329,-0.2780743,0.15136766,0.44331017,0.051803295,0.1161356,0.3054753,0.13685521,-0.6435263,-0.26761094,-0.06084439,-0.24822736
0.06038051,-0.25523838,0.16757846,0.4658773,0.060543653,0.13825652,0.3054753,0.13685521,-0.6435263,-0.2600164,-0.05939156,-0.246238
0.07258689,-0.25311226,0.22802496,0.48933086,0.06682629,0.16757709,0.29887074,0.120193705,-0.6097735,-0.2520192,-0.057675987,-0.24366498
0.11343045,-0.25241023,0.2531221,0.52171236,0.08262668,0.18107235,0.29887074,0.120193705,-0.6097735,-0.24338846,-0.055696025,-0.24087286
0.11920385,-0.24265514,0.24828792,0.5471656,0.10693159,0.19067039,0.31827295,0.083691925,-0.62693393,-0.23427095,-0.05333273,-0.2379651
0.11664648,-0.24729618,0.27182817,0.5621261,0.12543762,0.1993339,0.31827295,0.083691925,-0.62693393,-0.22485328,-0.050703727,-0.23494148
0.11504373,-0.2506459,0.2959664,0.5723081,0.13933991,0.20009921,0.31578714,0.06386076,-0.5973413,-0.21523842,-0.047892056,-0.23193598
0.12446633,-0.25645205,0.32006264,0.5712013,0.15152216,0.20014875,0.31578714,0.06386076,-0.5973413,-0.20562781,-0.04495243,-0.2289393
0.118853256,-0.25262168,0.356642,0.5682078,0.15885703,0.19841556,0.30920404,0.028825164,-0.58147585,-0.19607808,-0.041934825,-0.2259624
0.11598079,-0.24827084,0.39413357,0.5587058,0.16094486,0.19973749,0.30920404,0.028825164,-0.58147585,-0.18670352,-0.03892619,-0.2229383
0.1253626,-0.24955547,0.41063142,0.5469562,0.1521137,0.19740663,0.3244766,0.0046795458,-0.58553076,-0.17756629,-0.03607229,-0.21989775
0.116363764,-0.24018541,0.40150476,0.5312246,0.14742737,0.19180721,0.3244766,0.0046795458,-0.58553076,-0.1687182,-0.033353187,-0.21692443
0.10723906,-0.23742025,0.3952608,0.51472235,0.14408372,0.18413089,0.33491945,-0.021962255,-0.5769714,-0.16019209,-0.030728236,-0.21407437
0.09353985,-0.22818297,0.39838505,0.49984074,0.1412692,0.17754799,0.33491945,-0.021962255,-0.5769714,-0.15193708,-0.028208978,-0.21132374
0.09624894,-0.22035691,0.3794732,0.4885128,0.13518164,0.17307639,0.3265831,-0.055345476,-0.60452235,-0.14390786,-0.025805034,-0.20860338
0.09922736,-0.21023399,0.35076213,0.48382697,0.13852918,0.17127886,0.3265831,-0.055345476,-0.60452235,-0.1359547,-0.023396581,-0.20592594
0.104431614,-0.1959842,0.36798382,0.4856227,0.14061026,0.16886142,0.3220309,-0.0860939,-0.5450448,-0.12797,-0.020975612,-0.2032578
0.1060977,-0.17785062,0.35462356,0.49360818,0.13481528,0.16276072,0.3220309,-0.0860939,-0.5450448,-0.11980744,-0.018695131,-0.20070243
0.09376216,-0.16696799,0.34370494,0.4972135,0.13369742,0.16005065,0.33417463,-0.09546322,-0.55319977,-0.11157837,-0.016448699,-0.19818306
0.0869597,-0.15995252,0.32786202,0.49637556,0.13819793,0.159355,0.33417463,-0.09546322,-0.55319977,-0.1033513,-0.014174923,-0.1956594
0.0827265,-0.15096095,0.36370373,0.49582252,0.14333008,0.15847795,0.33531427,-0.12426627,-0.5236373,-0.09514134,-0.011838011,-0.19313717
0.08252719,-0.13710657,0.3642106,0.4930243,0.14371061,0.15450473,0.33531427,-0.12426627,-0.5236373,-0.0869686,-0.00954099,-0.19067931
0.08420744,-0.12324387,0.36442685,0.4919054,0.1464886,0.14955729,0.3515228,-0.152071,-0.54941714,-0.078819916,-0.0072224513,-0.18830371
0.077109694,-0.10052228,0.36950064,0.4947806,0.14645705,0.14670315,0.3515228,-0.152071,-0.54941714,-0.070598274,-0.0049448386,-0.18596864
0.08113418,-0.088146724,0.3960073,0.49744347,0.14443305,0.14244077,0.3355378,-0.16778421,-0.49023867,-0.062327735,-0.0027121827,-0.18369412
0.07844175,-0.07718077,0.44741845,0.4938222,0.13412549,0.13709559,0.3355378,-0.16778421,-0.49023867,-0.054110866,-0.00067307055,-0.18150139
0.066412255,-0.072259486,0.48603153,0.4841163,0.12071189,0.13106638,0.3463353,-0.19159365,-0.48590815,-0.046088614,0.0011546761,-0.17940164
0.058402494,-0.06526539,0.50694513,0.46888784,0.10585097,0.12426501,0.3463353,-0.19159365,-0.48590815,-0.038348485,0.0027247071,-0.17741585
0.054644622,-0.06415784,0.5398812,0.44729066,0.091628775,0.11941924,0.36465347,-0.21821958,-0.47249854,-0.031039387,0.0040777773,-0.17550874
0.05278965,-0.06374764,0.5462208,0.41952953,0.07351784,0.11355185,0.36465347,-0.21821958,-0.47249854,-0.024261283,0.0051316842,-0.1737032
0.05357817,-0.06171012,0.56882286,0.38932607,0.05486641,0.10696072,0.3518204,-0.23289025,-0.47377503,-0.018083045,0.0059076175,-0.17201662
0.062772565,-0.05692272,0.5619416,0.36529553,0.037470803,0.09654997,0.3518204,-0.23289025,-0.47377503,-0.012358416,0.00639816,-0.17054486
0.068323426,-0.042364903,0.54389215,0.34796038,0.023078375,0.08365689,0.34621507,-0.24713275,-0.4572245,-0.006974402,0.0066770837,-0.1693356
0.06728927,-0.03409825,0.55690145,0.33733216,0.011385901,0.0707286,0.34621507,-0.24713275,-0.4572245,-0.001777547,0.006760739,-0.16840577
0.06340007,-0.028056737,0.5563195,0.32952836,-0.0042027635,0.0618429,0.34473002,-0.2645438,-0.44483578,0.003262822,0.006622553,-0.16765308
0.067283705,-0.029255107,0.55337405,0.3233162,-0.022798864,0.05437472,0.34473002,-0.2645438,-0.44483578,0.0081980955,0.006193213,-0.16707373
0.065448456,-0.02535673,0.53966427,0.31512088,-0.042940177,0.04704663,0.34329897,-0.26668796,-0.4189824,0.012967823,0.0054785386,-0.16665936
0.07402589,-0.02427715,0.534806,0.30429754,-0.057296075,0.04005511,0.34329897,-0.26668796,-0.4189824,0.01754146,0.0045391396,-0.16639948
0.069129616,-0.018110763,0.5188701,0.29436988,-0.074169636,0.03491806,0.34289032,-0.28478724,-0.42821825,0.021913696,0.00336539,-0.16625357
0.077950895,-0.012085972,0.50215125,0.2836963,-0.09168902,0.032711398,0.34289032,-0.28478724,-0.42821825,0.026088815,0.0019208416,-0.16617489
0.07540758,0.0048269248,0.5082774,0.27595568,-0.10707873,0.030618602,0.33345604,-0.29910582,-0.41625726,0.030103084,0.00026426464,-0.16614008
0.08617232,0.009844306,0.5203481,0.2707575,-0.12085974,0.031361926,0.33345604,-0.29910582,-0.41625726,0.034025654,-0.0016092211,-0.16612148
0.0726773,0.01858978,0.53165483,0.26379836,-0.14057653,0.03109526,0.32494688,-0.30789596,-0.41707432,0.03780136,-0.003759168,-0.16611695
0.09897162,0.019851195,0.5126517,0.25650293,-0.15453841,0.034044188,0.32494688,-0.30789596,-0.41707432,0.041441854,-0.006130375,-0.16608262
0.14493343,0.014674274,0.53320503,0.25399217,-0.1598117,0.022592736,0.31976104,-0.3132257,-0.40023136,0.04503556,-0.00855539,-0.16630173
0.11729528,0.033146888,0.53342557,0.24870062,-0.19106494,0.010626761,0.31976104,-0.3132257,-0.40023136,0.048552293,-0.01143989,-0.16682148
0.104994535,0.04579905,0.5580678,0.24569365,-0.22569798,0.0021297988,0.3129636,-0.31393093,-0.42670798,0.05201267,-0.014809392,-0.1675725
0.08853876,0.057151984,0.5799191,0.24560302,-0.27800468,-0.0068978444,0.3129636,-0.31393093,-0.42670798,0.055499688,-0.018946588,-0.16857767
0.11479456,0.063461296,0.57825446,0.25194216,-0.31849122,-0.0174876,0.31140298,-0.32823366,-0.40989506,0.05912185,-0.023648284,-0.16986728
0.13755028,0.06767713,0.58985114,0.2657072,-0.35026258,-0.032498363,0.31140298,-0.32823366,-0.40989506,0.06305618,-0.028803535,-0.17154098
0.14609961,0.067708544,0.6187365,0.28081924,-0.3814899,-0.049865946,0.29948443,-0.32818937,-0.41500926,0.067314275,-0.034371845,-0.17365766
0.15681054,0.06554159,0.6202023,0.29144955,-0.4197741,-0.06558216,0.29948443,-0.32818937,-0.41500926,0.071832724,-0.040479496,-0.17618752
0.16641147,0.056681275,0.6363826,0.29624888,-0.46138203,-0.08355799,0.27834737,-0.34260225,-0.41248477,0.076483466,-0.047141783,-0.17918658
0.17460515,0.04823704,0.64216614,0.2966066,-0.5086814,-0.10697305,0.27834737,-0.34260225,-0.41248477,0.08121816,-0.05445277,-0.1828103
0.17261954,0.036616817,0.64281917,0.2919122,-0.5579931,-0.12984258,0.2793374,-0.33099562,-0.42074502,0.08592232,-0.062412545,-0.18707299
0.18197097,0.02915759,0.6209595,0.28387108,-0.61028457,-0.15488805,0.2793374,-0.33099562,-0.42074502,0.09056759,-0.07107735,-0.19198751
0.17537248,0.038734615,0.5931351,0.2691814,-0.6633133,-0.17602149,0.24188226,-0.34813637,-0.41936827,0.09500264,-0.08043645,-0.19749117
0.17591634,0.047192432,0.5729158,0.24803554,-0.72076285,-0.19055243,0.24188226,-0.34813637,-0.41936827,0.09912063,-0.09059006,-0.20348477
0.1779244,0.05019753,0.5255091,0.21875751,-0.76780397,-0.20537093,0.21762717,-0.35695946,-0.4298874,0.10274614,-0.101359114,-0.20992613
0.17176552,0.053403623,0.50847936,0.18189076,-0.81584775,-0.21767427,0.21762717,-0.35695946,-0.4298874,0.10575687,-0.11278978,-0.21680617
0.16623245,0.06713587,0.4687376,0.14125751,-0.8601135,-0.21985102,0.19768375,-0.35071552,-0.43100524,0.10803408,-0.12482968,-0.22386646
0.15088122,0.09035443,0.36797786,0.098009035,-0.8829775,-0.18182586,0.19768375,-0.35071552,-0.43100524,0.109428905,-0.13729599,-0.23020697
0.15471241,0.07657606,0.29957986,0.05919169,-0.8677392,-0.12347151,0.1753223,-0.35103917,-0.5495224,0.10991335,-0.14966857,-0.23529696
0.15571676,0.051634602,0.24743748,0.027083363,-0.8225028,-0.0842902,0.1753223,-0.35103917,-0.5495224,0.10967446,-0.16148978,-0.23944402
0.18545645,0.03209964,0.1748805,0.0011618435,-0.74143434,-0.08099648,0.13625419,-0.33654565,-0.48661983,0.108904354,-0.17212571,-0.24334574
0.2032429,0.037638318,0.20952249,-0.01806409,-0.6581872,-0.09395815,0.13625419,-0.33654565,-0.48661983,0.1078125,-0.18152954,-0.24736047
0.22619464,0.048793502,0.23759079,-0.03373923,-0.5918278,-0.10400134,0.11993611,-0.33927357,-0.4877677,0.10643623,-0.18993223,-0.25142717
0.23839056,0.058556218,0.26231813,-0.04896938,-0.53627324,-0.106675655,0.11993611,-0.33927357,-0.4877677,0.10478326,-0.19753593,-0.2554555
0.23982303,0.063327804,0.28220844,-0.060114995,-0.4895874,-0.10343227,0.10539448,-0.3278373,-0.5100523,0.10288441,-0.20446071,-0.2592976
0.23864497,0.07050495,0.29930806,-0.068592265,-0.44497237,-0.100165576,0.10539448,-0.3278373,-0.5100523,0.10081612,-0.2107611,-0.26297975
0.24852657,0.07875903,0.3176334,-0.07174672,-0.40322572,-0.09609014,0.087497294,-0.31931067,-0.6280149,0.09865151,-0.2164576,-0.2664969
0.2493186,0.084590524,0.3381195,-0.07021429,-0.3670372,-0.091691904,0.087497294,-0.31931067,-0.6280149,0.096508496,-0.22165361,-0.26982045
0.26037103,0.09278522,0.34493446,-0.06745322,-0.33168492,-0.090163164,0.0823977,-0.30992544,-0.51969266,0.094395556,-0.2263309,-0.27301073
0.2707155,0.09856188,0.35034752,-0.0665739,-0.30059132,-0.08900197,0.0823977,-0.30992544,-0.51969266,0.09230436,-0.23057511,-0.27613425
0.2684592,0.09966842,0.3373251,-0.06585868,-0.26652995,-0.090067565,0.06775892,-0.30401653,-0.6245147,0.090212785,-0.2343139,-0.27921367
0.2680411,0.10153312,0.35560608,-0.060946867,-0.23776141,-0.08822236,0.06775892,-0.30401653,-0.6245147,0.088218495,-0.23765337,-0.2821951
0.2697549,0.10273535,0.37503672,-0.055099115,-0.21531345,-0.08623682,0.06736106,-0.3042925,-0.53784716,0.086313955,-0.24066105,-0.2850411
0.27557418,0.106664136,0.37086964,-0.046127953,-0.1996801,-0.08665019,0.06736106,-0.3042925,-0.53784716,0.084600724,-0.24345759,-0.28791332
0.280097,0.10963111,0.35109305,-0.03615559,-0.19112381,-0.08703019,0.057852745,-0.28130978,-0.56812966,0.08307388,-0.24612138,-0.29077458
0.28715745,0.112062216,0.33455825,-0.026591301,-0.18834655,-0.086464025,0.057852745,-0.28130978,-0.56812966,0.081750035,-0.24876142,-0.29361725
0.29359937,0.10757819,0.31474566,-0.015246585,-0.18580547,-0.08180098,0.057852745,-0.28130978,-0.56812966,0.08061732,-0.2513645,-0.29633355
0.2947686,0.10492714,0.2971983,-0.00082986057,-0.1841599,-0.07714668,0.057852745,-0.28130978,-0.56812966,0.079763375,-0.2539668,-0.2989583
0.30332768,0.10402889,0.29281616,0.015840821,-0.18207419,-0.073409945,0.04607445,-0.27829456,-0.5731453,0.07921002,-0.25653493,-0.30147314
0.31442544,0.10149673,0.28669715,0.030826122,-0.18152554,-0.067828014,0.04607445,-0.27829456,-0.5731453,0.078941934,-0.2591184,-0.30388522
0.31754664,0.09386997,0.2761116,0.042737316,-0.18114713,-0.06365117,0.045289576,-0.28085214,-0.5602671,0.078878656,-0.2616917,-0.3061726
0.32508808,0.09155766,0.28871417,0.047220275,-0.18120176,-0.063301615,0.045289576,-0.28085214,-0.5602671,0.07891978,-0.26427892,-0.30848622
0.3316329,0.095163815,0.3025422,0.044008963,-0.18608387,-0.06280298,0.0353294,-0.2662303,-0.6688601,0.07888742,-0.2669281,-0.3108251
0.3314313,0.09228562,0.30741,0.03665877,-0.19001836,-0.061009146,0.0353294,-0.2662303,-0.6688601,0.07872036,-0.26964894,-0.3131044
0.33487418,0.09543941,0.30885553,0.02764124,-0.19240588,-0.059191488,0.04635513,-0.27235383,-0.57294977,0.07835768,-0.2723965,-0.3153231
0.33565533,0.088334434,0.3163767,0.019987877,-0.1955722,-0.057391576,0.04635513,-0.27235383,-0.57294977,0.07785326,-0.2752068,-0.31753063
0.33580887,0.08761438,0.31633377,0.012122612,-0.20250027,-0.054139443,0.01900202,-0.25977054,-0.66106427,0.07716925,-0.2781148,-0.31968403
0.34306774,0.07870551,0.29880047,0.00047010928,-0.21071364,-0.050481625,0.01900202,-0.25977054,-0.66106427,0.07625617,-0.28116235,-0.32175708
0.34307453,0.07524582,0.30875635,-0.00994055,-0.2195118,-0.048049077,0.023282826,-0.25133362,-0.5781677,0.0751178,-0.28433374,-0.32377434
0.3456463,0.072726026,0.3218398,-0.021786913,-0.2270758,-0.04939802,0.023282826,-0.25133362,-0.5781677,0.07377285,-0.28762808,-0.32584167
0.34784925,0.074431196,0.3059504,-0.031151466,-0.23322545,-0.047254644,0.007749617,-0.25150397,-0.59219205,0.072223425,-0.29100722,-0.32783866
0.34709188,0.07040866,0.30182838,-0.03932137,-0.24047025,-0.04445719,0.007749617,-0.25150397,-0.59219205,0.07051635,-0.2945127,-0.329803
0.34908316,0.07106637,0.3001685,-0.05026284,-0.2521815,-0.042612262,-0.00019818544,-0.24841267,-0.5926198,0.06857646,-0.29818442,-0.33170438
0.34502038,0.07511719,0.297076,-0.062339783,-0.26886886,-0.037327446,-0.00019818544,-0.24841267,-0.5926198,0.066389784,-0.3021255,-0.33352995
0.34625998,0.08340128,0.30339336,-0.07697785,-0.28463805,-0.031054094,-0.018881768,-0.24244243,-0.69770575,0.06387152,-0.30630037,-0.33521795
0.35533154,0.08135443,0.31071115,-0.09488641,-0.30426762,-0.021653332,-0.018881768,-0.24244243,-0.69770575,0.060965806,-0.3107927,-0.33670664
0.3515893,0.08421307,0.29957318,-0.118144214,-0.32456604,-0.012776896,-0.029724032,-0.21607655,-0.61959755,0.057540715,-0.31558847,-0.33799696
0.34219924,0.08951912,0.27750516,-0.1381292,-0.33689687,-0.006439727,-0.029724032,-0.21607655,-0.61959755,0.05369844,-0.3205894,-0.33913445
0.34683865,0.096903645,0.3009529,-0.1551677,-0.35384777,0.00212715,-0.036134332,-0.20731822,-0.7237965,0.049454935,-0.3258432,-0.34008503
0.36285195,0.08849245,0.29247522,-0.17419513,-0.37833637,0.008710859,-0.036134332,-0.20731822,-0.7237965,0.04480959,-0.3314787,-0.3408563
0.3672669,0.08260592,0.23320913,-0.185907,-0.40162522,0.013297372,-0.05174157,-0.20438024,-0.73339987,0.03988872,-0.33745283,-0.34149218
0.38169807,0.07253112,0.19616699,-0.19128734,-0.42388627,0.013212367,-0.05174157,-0.20438024,-0.73339987,0.03487128,-0.34376934,-0.34211683
0.39427164,0.06253001,0.14742851,-0.19044515,-0.44044206,0.011821054,-0.07424331,-0.18066505,-0.7471688,0.029859202,-0.35032034,-0.34274316
0.40643644,0.053660367,0.08373356,-0.18485758,-0.44960302,0.00497015,-0.07424331,-0.18066505,-0.7471688,0.025007771,-0.35701662,-0.34348583
0.40846342,0.05870238,0.049856663,-0.17093787,-0.4509273,-0.0021990538,-0.08616188,-0.18062076,-0.75228286,0.020457365,-0.36372045,-0.34432697
0.41070077,0.054362684,0.02837658,-0.16491725,-0.4549501,-0.0027969964,-0.08616188,-0.18062076,-0.75228286,0.016035097,-0.3704994,-0.34516883
0.40085927,0.059027944,0.0133600235,-0.15260614,-0.45323363,-0.0065715984,-0.11306316,-0.15967774,-0.762087,0.011860742,-0.37724406,-0.34604764
0.40718007,0.056736924,0.0515213,-0.13891284,-0.45221218,-0.007988334,-0.11306316,-0.15967774,-0.762087,0.007972533,-0.38398874,-0.3469348
0.40832993,0.056105655,0.056895256,-0.124201134,-0.45255443,-0.013338558,-0.13271365,-0.15667957,-0.77195275,0.0043939725,-0.39072913,-0.3478849
0.43286186,0.061596688,0.08229303,-0.10685676,-0.44829297,-0.015099812,-0.13271365,-0.15667957,-0.77195275,0.0011782886,-0.39742246,-0.348876
0.4417273,0.0545205,0.02931261,-0.08778609,-0.4345389,-0.018607222,-0.16308916,-0.13298029,-0.7905718,-0.001651762,-0.40390524,-0.3499236
0.4542394,0.04720115,0.06742263,-0.06781849,-0.40915194,-0.025244422,-0.16308916,-0.13298029,-0.7905718,-0.0040256027,-0.41002944,-0.3511126
0.45688966,0.050851196,0.10164547,-0.058410928,-0.38617912,-0.023284294,-0.16313386,-0.13042387,-0.70813286,-0.0062414976,-0.41580555,-0.35221577
0.47265053,0.034949966,0.12779045,-0.04632643,-0.3679689,-0.024077669,-0.16313386,-0.13042387,-0.70813286,-0.008199378,-0.4213283,-0.35335398
0.47609767,0.034091353,0.106609106,-0.03747192,-0.3391216,-0.024894606,-0.19048539,-0.11784059,-0.79624736,-0.0099867005,-0.4264176,-0.35450816
0.4744871,0.019852817,0.15591717,-0.030321047,-0.3082968,-0.022924688,-0.19048539,-0.11784059,-0.79624736,-0.011632417,-0.4310656,-0.35561442
0.51007617,0.009213852,0.20274615,-0.009170972,-0.29800272,-0.02343921,-0.17821214,-0.11505136,-0.7953619,-0.01286784,-0.43555272,-0.3567319
0.51152205,-0.009752278,0.20273924,0.0045279935,-0.27318886,-0.03056287,-0.17821214,-0.11505136,-0.7953619,-0.013756871,-0.43968982,-0.35802317
0.5205162,-0.02348726,0.2168951,0.01931943,-0.2511154,-0.039341852,-0.21887165,-0.114308625,-0.79366267,-0.014288399,-0.44349468,-0.35951114
0.5178438,-0.017315703,0.22678256,0.0110397935,-0.22930904,-0.039542317,-0.21887165,-0.114308625,-0.79366267,-0.014962645,-0.44699156,-0.36103463
0.52336174,-0.030607946,0.3196795,0.014314473,-0.22648354,-0.040827967,-0.21383837,-0.10276219,-0.80166054,-0.01557108,-0.4504372,-0.36259222
0.5334676,-0.03357483,0.30521894,0.016029228,-0.22996725,-0.045528352,-0.21383837,-0.10276219,-0.80166054,-0.016089851,-0.45394838,-0.3642602
0.5338251,-0.038123224,0.29689264,0.007693149,-0.22686265,-0.043714665,-0.22128189,-0.10305408,-0.8151604,-0.016797675,-0.45740253,-0.36587882
0.541993,-0.04272159,0.26551747,0.0064173117,-0.23132485,-0.042861976,-0.22128189,-0.10305408,-0.8151604,-0.017522505,-0.46093452,-0.36748028
0.5365417,-0.037681907,0.225245,0.00054836273,-0.23428974,-0.04047233,-0.22185093,-0.10574907,-0.80660784,-0.018394327,-0.46449822,-0.3690014
0.54381627,-0.045642655,0.22202134,0.0043914095,-0.23633997,-0.042058013,-0.22185093,-0.10574907,-0.80660784,-0.01916097,-0.4681061,-0.3705783
0.545534,-0.043523133,0.20249057,0.005486816,-0.24560344,-0.04032086,-0.26115495,-0.099752665,-0.82633936,-0.01993291,-0.47183847,-0.37208152
0.5455109,-0.044046856,0.15255237,0.00811445,-0.25028518,-0.03479851,-0.26115495,-0.099752665,-0.82633936,-0.020687172,-0.47564965,-0.37347054
0.55145687,-0.05453135,0.1572783,0.010456316,-0.2565494,-0.032630507,-0.24171884,-0.10261345,-0.8121481,-0.021426346,-0.47954088,-0.37477732
0.54862154,-0.05236247,0.15928411,0.014273562,-0.27347153,-0.03455276,-0.24171884,-0.10261345,-0.8121481,-0.022060398,-0.4836951,-0.37614465
0.55216664,-0.05602508,0.1456573,0.01822424,-0.29139027,-0.036608487,-0.27359015,-0.08713758,-0.80943465,-0.022611564,-0.4881035,-0.3775425
0.55682975,-0.053338252,0.140589,0.019552737,-0.30738994,-0.04263053,-0.27359015,-0.08713758,-0.80943465,-0.023067022,-0.4927634,-0.37909007
0.57009053,-0.05212336,0.12645292,0.022829093,-0.3149153,-0.049788877,-0.28947645,-0.090141445,-0.8192338,-0.023401074,-0.4975273,-0.38079047
0.5812494,-0.051747218,0.11987233,0.025683105,-0.31562778,-0.05449111,-0.28947645,-0.090141445,-0.8192338,-0.023615237,-0.50231713,-0.3826325
0.58750486,-0.050907254,0.1356492,0.023913588,-0.32162988,-0.055660516,-0.30040506,-0.07848939,-0.83260655,-0.023861723,-0.50718534,-0.38450313
0.59176713,-0.04834905,0.12056303,0.014722757,-0.32812423,-0.05283843,-0.30040506,-0.07848939,-0.83260655,-0.024297921,-0.5121589,-0.38630223
0.59778583,-0.05253873,0.07927704,0.0069198012,-0.3277749,-0.051931724,-0.30498806,-0.081676096,-0.7463,-0.02490445,-0.51711553,-0.3880477
0.601412,-0.05590639,0.05709505,0.0015627816,-0.32186502,-0.05276879,-0.30498806,-0.081676096,-0.7463,-0.02558813,-0.5219989,-0.38985085
0.59549826,-0.0544381,0.0670414,-0.00081685185,-0.31854227,-0.05404385,-0.33197567,-0.07544693,-0.84758496,-0.02631397,-0.5268244,-0.39167976
0.597959,-0.058925983,0.06873131,0.0027509257,-0.32678506,-0.05510071,-0.33197567,-0.07544693,-0.84758496,-0.026941651,-0.5317842,-0.39353895
0.5905646,-0.056019202,0.02884698,0.0061365888,-0.33476827,-0.05616577,-0.33334196,-0.07151297,-0.81721044,-0.02750209,-0.536852,-0.39540815
0.5935985,-0.061737686,0.020623922,0.01295051,-0.33986813,-0.059399374,-0.33334196,-0.07151297,-0.81721044,-0.027875744,-0.5420094,-0.39737105
0.5966133,-0.06609836,0.015874863,0.018472861,-0.3444889,-0.06418237,-0.3602216,-0.06894404,-0.8449017,-0.02809878,-0.54722756,-0.3994422
0.605062,-0.065047875,0.019791842,0.023088206,-0.34369728,-0.06872016,-0.3602216,-0.06894404,-0.8449017,-0.028159965,-0.5524492,-0.40165162
0.6054277,-0.059130933,0.026674509,0.029633783,-0.34250212,-0.070104055,-0.35725313,-0.06831604,-0.8230146,-0.028081555,-0.55764294,-0.403888
0.6081405,-0.05926533,0.035769224,0.03357334,-0.3470353,-0.068252236,-0.35725313,-0.06831604,-0.8230146,-0.027921923,-0.562913,-0.40609884
0.59673876,-0.060775287,0.047344446,0.03290636,-0.3591526,-0.06749302,-0.37605548,-0.056681037,-0.841236,-0.027791671,-0.56834984,-0.40829253
0.60604817,-0.06409135,0.023870468,0.02859125,-0.37214556,-0.069216415,-0.37605548,-0.056681037,-0.841236,-0.027706098,-0.57398957,-0.41052818
0.61200976,-0.06233327,-0.0057811737,0.027916089,-0.37581554,-0.074291766,-0.4087549,-0.06821725,-0.84805274,-0.02758186,-0.57967484,-0.41286635
0.6148777,-0.061880298,-0.013581514,0.030755203,-0.37796295,-0.07721606,-0.4087549,-0.06821725,-0.84805274,-0.027342614,-0.58540547,-0.41532826
0.61443126,-0.056348316,-0.019501448,0.035198722,-0.38387284,-0.077563755,-0.41203484,-0.047224253,-0.84330773,-0.027015582,-0.5912124,-0.41781664
0.6236485,-0.050137635,-0.025968075,0.045704834,-0.38951957,-0.08014089,-0.41203484,-0.047224253,-0.84330773,-0.026423603,-0.59711355,-0.42037416
0.6295602,-0.042484507,-0.04475832,0.053710256,-0.39203936,-0.08464584,-0.4377225,-0.05819261,-0.8279718,-0.025620868,-0.6030416,-0.42303634
0.63008255,-0.029339537,-0.03535688,0.061117724,-0.38798076,-0.085632,-0.4377225,-0.05819261,-0.8279718,-0.024626454,-0.6089203,-0.4257791
0.6235738,-0.024302797,-0.069815874,0.060451582,-0.3886893,-0.08003152,-0.45608383,-0.05602005,-0.8637897,-0.02370909,-0.614792,-0.42837548
0.62932336,-0.015672162,-0.10371244,0.06065447,-0.3828085,-0.07606016,-0.45608383,-0.05602005,-0.8637897,-0.022801077,-0.6205837,-0.43090534
0.63117146,-0.015099989,-0.13666415,0.05764457,-0.37345245,-0.0751802,-0.4577292,-0.05802682,-0.8336108,-0.021959146,-0.62622386,-0.43341208
0.62413937,-0.00624454,-0.13538086,0.055803716,-0.3568456,-0.07446971,-0.4577292,-0.05802682,-0.8336108,-0.021126248,-0.63162875,-0.43595266
0.6289345,-0.0009830862,-0.098626494,0.051716246,-0.34597203,-0.0746715,-0.48482475,-0.0553205,-0.8569763,-0.020368578,-0.63686067,-0.4385047
0.6362267,0.013435361,-0.09520841,0.042839073,-0.3339295,-0.0719188,-0.48482475,-0.0553205,-0.8569763,-0.019787276,-0.64192367,-0.4410224
0.6424268,0.024815667,-0.122822285,0.03111922,-0.31956688,-0.059439354,-0.50257385,-0.060193688,-0.83227074,-0.01959412,-0.6467553,-0.44317865
0.6493801,0.02208718,-0.1329633,0.017980017,-0.29369262,-0.045981705,-0.50257385,-0.060193688,-0.83227074,-0.01980116,-0.65121067,-0.44502544
0.6523475,0.017496012,-0.12817752,0.00702177,-0.27426276,-0.038417667,-0.5102425,-0.051160485,-0.83250296,-0.020326186,-0.655365,-0.44665837
0.6589507,0.014885406,-0.1817559,-0.0013455674,-0.25463605,-0.02832628,-0.5102425,-0.051160485,-0.83250296,-0.021122707,-0.6592369,-0.44804287
0.67042756,0.012064477,-0.21978784,-0.010326803,-0.22740419,-0.0069478936,-0.5148672,-0.04460764,-0.81527066,-0.022382474,-0.662685,-0.4488287
0.6741224,0.0050102836,-0.21215129,-0.015655078,-0.19888888,0.011834824,-0.5148672,-0.04460764,-0.81527066,-0.023972133,-0.66571367,-0.44911957
0.6744125,-0.011284728,-0.2098751,-0.021132104,-0.17699595,0.024692152,-0.537133,-0.039403975,-0.8512522,-0.025851866,-0.66840065,-0.4490435
0.6661054,-0.016563617,-0.23670208,-0.025127895,-0.1484026,0.03796947,-0.537133,-0.039403975,-0.8512522,-0.027965859,-0.6706683,-0.44862175
0.67412263,-0.023402829,-0.23446548,-0.028239124,-0.119022295,0.053406574,-0.52826923,-0.027780354,-0.85466063,-0.030356776,-0.67248017,-0.44778228
0.6809275,-0.033814445,-0.23240578,-0.032962315,-0.085733734,0.069804944,-0.52826923,-0.027780354,-0.85466063,-0.033035874,-0.6737973,-0.44650102
0.6946064,-0.04422211,-0.20576227,-0.035895012,-0.06309354,0.07709782,-0.5325932,-0.03366089,-0.8551184,-0.03587991,-0.6747601,-0.44500065
0.6875725,-0.046285175,-0.18183267,-0.035945155,-0.04570503,0.084053576,-0.5325932,-0.03366089,-0.8551184,-0.03879814,-0.6754685,-0.44334483
0.68117404,-0.047374077,-0.17583454,-0.033223733,-0.031246994,0.09307752,-0.52047104,-0.024656117,-0.84538794,-0.041794527,-0.6759393,-0.4414289
0.6772989,-0.05135029,-0.17026365,-0.02977471,-0.016430404,0.10201221,-0.52047104,-0.024656117,-0.84538794,-0.044821333,-0.67618895,-0.43929338
0.67339283,-0.05148896,-0.16909218,-0.022914208,0.0015783953,0.1071355,-0.5445334,-0.015242472,-0.84234536,-0.04778689,-0.6761508,-0.43701506
0.67065305,-0.05390475,-0.17135394,-0.013035633,0.015535312,0.111026615,-0.5445334,-0.015242472,-0.84234536,-0.050585445,-0.6759088,-0.43466592
0.6690602,-0.053404745,-0.17217076,-0.00430575,0.035105284,0.11651877,-0.5403482,-0.012332872,-0.8419845,-0.05328609,-0.6753548,-0.43217015
0.6684972,-0.052455816,-0.18062806,0.00194107,0.056980837,0.122487865,-0.5403482,-0.012332872,-0.8419845,-0.055910308,-0.67447746,-0.42956448
0.67329526,-0.051064055,-0.18405724,0.0050344765,0.076903686,0.13239256,-0.5393582,-0.0007251352,-0.8502449,-0.0586024,-0.67327607,-0.4267125
0.6792465,-0.047524188,-0.17771506,0.008155987,0.09998186,0.14274901,-0.5393582,-0.0007251352,-0.8502449,-0.06133212,-0.6717249,-0.42362094
0.6788919,-0.046899512,-0.1593399,0.012050644,0.12319445,0.15519112,-0.5302585,-0.0076141357,-0.87586594,-0.064138435,-0.6697942,-0.42020893
0.6819278,-0.048533425,-0.14692378,0.01790176,0.14674075,0.16719179,-0.5302585,-0.0076141357,-0.87586594,-0.06694323,-0.6675022,-0.41654038
0.6823491,-0.044513315,-0.15337026,0.024158854,0.17298241,0.17617336,-0.5300534,0.0014360696,-0.871248,-0.06972154,-0.66478944,-0.41267443
0.67744607,-0.043844443,-0.16838491,0.029610705,0.2018109,0.18894939,-0.5300534,0.0014360696,-0.871248,-0.072503224,-0.66163397,-0.40854216
0.6779828,-0.046216454,-0.1731298,0.036389798,0.23103763,0.19886017,-0.5109072,0.0018210411,-0.8483083,-0.07524794,-0.65800995,-0.40420008
0.6711348,-0.039282672,-0.16586661,0.04065498,0.26679352,0.20938954,-0.5109072,0.0018210411,-0.8483083,-0.07797355,-0.6538439,-0.3996873
0.66572356,-0.046933975,-0.16722095,0.046248235,0.2998838,0.21867776,-0.505712,-0.0020368248,-0.87409496,-0.080662616,-0.6491517,-0.3949964
0.66278785,-0.062340066,-0.15512645,0.05305796,0.32935706,0.22516984,-0.505712,-0.0020368248,-0.87409496,-0.083226554,-0.64401674,-0.3902545
0.6594013,-0.07781072,-0.14091241,0.059816495,0.35684034,0.22767363,-0.4909005,0.0016563833,-0.84267116,-0.08564176,-0.6384515,-0.38552332
0.645569,-0.08274185,-0.16483021,0.065910354,0.3876297,0.23102957,-0.4909005,0.0016563833,-0.84267116,-0.08789914,-0.63243145,-0.38083434
0.645472,-0.0809934,-0.17943645,0.073221736,0.42471725,0.23506819,-0.47337648,0.01585348,-0.8541076,-0.090001084,-0.6258396,-0.37617326
0.63880825,-0.08437819,-0.17223608,0.07565948,0.45652443,0.24368536,-0.47337648,0.01585348,-0.8541076,-0.09207363,-0.618766,-0.37139225
0.6369107,-0.09374459,-0.15730488,0.07895766,0.4864307,0.25181478,-0.45400512,0.006914571,-0.84443724,-0.09411811,-0.6112154,-0.36649823
0.64474726,-0.10398936,-0.101002336,0.08193756,0.5147577,0.26306656,-0.45400512,0.006914571,-0.84443724,-0.09614843,-0.6032279,-0.36144114
0.64182264,-0.11019022,-0.04321623,0.0846231,0.53152204,0.27356362,-0.42597353,0.0005491078,-0.8427949,-0.098194264,-0.5949484,-0.3561809
0.6338202,-0.11132737,8.440018e-05,0.08630827,0.5440579,0.2814457,-0.42597353,0.0005491078,-0.8427949,-0.10022038,-0.58646965,-0.35082507
0.632925,-0.121326454,0.009193897,0.085759,0.55097604,0.2887979,-0.40439546,0.0054983795,-0.86291254,-0.10229311,-0.5778493,-0.3453486
0.62434214,-0.12863456,0.012876749,0.085805364,0.5610946,0.29407346,-0.40439546,0.0054983795,-0.86291254,-0.10434636,-0.56907,-0.33982706
0.617519,-0.14040814,0.043531895,0.0858553,0.5699509,0.2947135,-0.37934315,0.007692501,-0.87421525,-0.10635517,-0.56013745,-0.3343749
0.61092484,-0.13940437,0.026233435,0.087545715,0.5769549,0.29288444,-0.37934315,0.007692501,-0.87421525,-0.10823849,-0.55110997,-0.3290453
0.6105452,-0.14086303,0.012316942,0.086095735,0.5813675,0.29376495,-0.35303405,0.0024286509,-0.8379713,-0.11011536,-0.54199386,-0.32375002
0.6042853,-0.15155044,0.0055081844,0.088420615,0.5891708,0.29101357,-0.35303405,0.0024286509,-0.8379713,-0.11184729,-0.5327753,-0.31861377
0.5907376,-0.15374234,0.02534318,0.090960756,0.5926879,0.28465652,-0.34046936,0.0019709617,-0.845834,-0.11342511,-0.5235024,-0.31368566
0.57265574,-0.15696152,0.03495121,0.094365515,0.5842135,0.28092244,-0.34046936,0.0019709617,-0.845834,-0.11485059,-0.51436937,-0.30889153
0.5487,-0.14327599,-0.0077564716,0.0923994,0.5755966,0.2826445,-0.3083189,-0.0075630397,-0.84835017,-0.11630811,-0.5053373,-0.30405498
0.53443044,-0.14961104,-0.068976164,0.090493515,0.5751728,0.28760758,-0.3083189,-0.0075630397,-0.84835017,-0.117795356,-0.49630356,-0.29916286
0.51302737,-0.15678534,-0.08461332,0.09045827,0.5765744,0.28940934,-0.29604566,-0.0047738254,-0.8474647,-0.11926616,-0.4872244,-0.29426003
0.50188756,-0.16338211,-0.060011983,0.09249508,0.5703027,0.28622395,-0.29604566,-0.0047738254,-0.8474647,-0.1206201,-0.4782523,-0.28947806
0.5105424,-0.1686907,-0.040325165,0.09465085,0.5544796,0.27759537,-0.27653396,-0.010742933,-0.83769727,-0.12184192,-0.4695168,-0.2848785
0.501217,-0.16653214,-0.04085481,0.10198615,0.53806853,0.26550466,-0.27653396,-0.010742933,-0.83769727,-0.12278287,-0.46106488,-0.280586
0.4830785,-0.16274375,-0.08117962,0.11198222,0.5271247,0.25350535,-0.24410285,-0.014336199,-0.8400196,-0.12341444,-0.45279205,-0.27656746
0.4607579,-0.14990793,-0.037158728,0.11572917,0.51502544,0.2439425,-0.24410285,-0.014336199,-0.8400196,-0.12386447,-0.44473505,-0.27278233
0.45817152,-0.15758538,0.011102676,0.119423464,0.4901315,0.23049915,-0.2248703,-0.026246041,-0.8304479,-0.12414102,-0.43706602,-0.26923847
0.46335095,-0.16888773,0.04097414,0.127333,0.46331212,0.22299497,-0.2248703,-0.026246041,-0.8304479,-0.12419413,-0.42982295,-0.26584458
0.44775113,-0.19007666,0.022456884,0.14046402,0.43440348,0.2230932,-0.19968843,-0.011894494,-0.8327085,-0.124008566,-0.42298827,-0.26239824
0.4800823,-0.19161592,0.009999752,0.14953652,0.41015813,0.23031008,-0.19968843,-0.011894494,-0.8327085,-0.12369336,-0.41649732,-0.25870466
0.48821932,-0.19715226,-1.4066696e-05,0.15198603,0.38882062,0.24430741,-0.17683199,-0.03277731,-0.8231666,-0.12344977,-0.4102624,-0.25461698
0.47294468,-0.21674976,0.013955355,0.15598056,0.37426785,0.24472396,-0.17683199,-0.03277731,-0.8231666,-0.1231136,-0.40425223,-0.25050306
0.4622274,-0.22573647,0.029850245,0.16273971,0.37109765,0.22000208,-0.16789266,-0.024262011,-0.8309976,-0.12245636,-0.39835235,-0.24698257
0.46565914,-0.20606193,0.04388237,0.17366293,0.37187362,0.18702024,-0.16789266,-0.024262011,-0.8309976,-0.121315464,-0.39255497,-0.2442224
0.46753213,-0.18293916,0.05818343,0.19355583,0.37574464,0.15869005,-0.16516167,-0.03931427,-0.74023163,-0.1195763,-0.386776,-0.24212241
0.46671534,-0.16382575,0.06476307,0.22020727,0.38700157,0.14126343,-0.16516167,-0.03931427,-0.74023163,-0.11716258,-0.38090095,-0.24045229
0.4513088,-0.15148638,0.14643908,0.24815491,0.39703926,0.12800783,-0.14940491,-0.048468947,-0.7394748,-0.11410675,-0.37490848,-0.2390697
0.44717374,-0.14402442,0.20818615,0.26408035,0.39834616,0.116915196,-0.14940491,-0.048468947,-0.7394748,-0.11065011,-0.36894548,-0.23795033
0.46155313,-0.13601978,0.2222507,0.2697053,0.40487775,0.1106625,-0.12655771,-0.060164124,-0.7209896,-0.10704989,-0.36289504,-0.23694658
0.47271737,-0.13152055,0.27350998,0.2691298,0.41298363,0.10750226,-0.12655771,-0.060164124,-0.7209896,-0.10342785,-0.3567512,-0.23602271
0.46955425,-0.13339692,0.3728552,0.26420203,0.42099875,0.10048479,-0.11486584,-0.07789317,-0.8074548,-0.09986702,-0.3504983,-0.23522878
0.46458158,-0.12572697,0.41162944,0.25505507,0.43219224,0.09295597,-0.11486584,-0.07789317,-0.8074548,-0.09642499,-0.34411594,-0.23462343
0.45504558,-0.11857547,0.44506598,0.24856235,0.45316625,0.08730439,-0.08683425,-0.084258646,-0.8058109,-0.09307947,-0.33743012,-0.23416305
0.42396602,-0.09523994,0.55156803,0.23764312,0.4596124,0.08087109,-0.08683425,-0.084258646,-0.8058109,-0.08990037,-0.33067852,-0.23383212
0.42077628,-0.085532874,0.5639825,0.22473136,0.4602543,0.075783566,-0.06803343,-0.09589365,-0.78758943,-0.08696124,-0.32391715,-0.23358202
0.4219676,-0.07693691,0.51797414,0.22122318,0.47103426,0.07074158,-0.06803343,-0.09589365,-0.78758943,-0.08405073,-0.31702211,-0.23344803
0.41293693,-0.07699022,0.5212016,0.22466758,0.48632962,0.058512643,-0.04951018,-0.11346939,-0.7695619,-0.08100965,-0.30991533,-0.23355937
0.40185082,-0.07402394,0.5252991,0.23013642,0.4987988,0.04635521,-0.04951018,-0.11346939,-0.7695619,-0.07778267,-0.30266294,-0.2339685
0.391568,-0.06900555,0.47483826,0.23752752,0.51097715,0.034784596,-0.033301592,-0.11426434,-0.6904948,-0.07435993,-0.29523975,-0.23460269
0.38699022,-0.06483695,0.48347735,0.2467664,0.5275992,0.028548053,-0.033301592,-0.11426434,-0.6904948,-0.07071598,-0.28759483,-0.23538828
0.36559457,-0.0535507,0.5109172,0.2519669,0.5315632,0.027628101,-0.02244857,-0.12280691,-0.67269945,-0.066987135,-0.27987722,-0.23613119
0.3546815,-0.051234037,0.47590566,0.25719237,0.5332431,0.03217913,-0.02244857,-0.12280691,-0.67269945,-0.06318261,-0.27213773,-0.23676014
0.33789918,-0.044328026,0.45810056,0.2661507,0.5357055,0.037789926,0.013145298,-0.13454527,-0.7444186,-0.059253342,-0.2643386,-0.23722029
0.3349995,-0.04725295,0.46285844,0.27134746,0.53364885,0.042841975,0.013145298,-0.13454527,-0.7444186,-0.055249646,-0.25657278,-0.2375238
0.31813923,-0.041144237,0.49943233,0.26770627,0.5246897,0.04839928,0.028149545,-0.14680827,-0.65276563,-0.051368657,-0.24891677,-0.23762465
0.30777252,-0.039266557,0.51258254,0.2593897,0.5044998,0.055449586,0.028149545,-0.14680827,-0.65276563,-0.047689687,-0.241561,-0.2375319
0.3099246,-0.045843653,0.46289325,0.24836513,0.48596114,0.063140735,0.048737645,-0.15346563,-0.664623,-0.044285513,-0.23445648,-0.23720431
0.29375553,-0.04554819,0.46113348,0.23973219,0.46825272,0.06915881,0.048737645,-0.15346563,-0.664623,-0.041077647,-0.2276192,-0.23670411
0.28093672,-0.046894748,0.4716866,0.22655396,0.44756138,0.07436603,0.061817348,-0.16649523,-0.69450283,-0.038170084,-0.22106972,-0.236027
0.27864167,-0.055538356,0.45409608,0.21290535,0.42430374,0.07776646,0.061817348,-0.16649523,-0.69450283,-0.035542287,-0.21487361,-0.23524785
0.26957065,-0.05111403,0.42319298,0.20508519,0.40717626,0.08235483,0.093505144,-0.18238446,-0.6148726,-0.03310151,-0.20891425,-0.23430634
0.2586968,-0.04997353,0.3913393,0.20211494,0.39279056,0.08671095,0.093505144,-0.18238446,-0.6148726,-0.03072955,-0.20317829,-0.23326755
0.25781026,-0.054965876,0.35554314,0.20163804,0.37827116,0.092745714,0.12715137,-0.18369618,-0.6387228,-0.028402869,-0.19764194,-0.23208141
0.25380197,-0.06186053,0.31667948,0.20469683,0.3706178,0.0955339,0.12715137,-0.18369618,-0.6387228,-0.026016254,-0.19223097,-0.23080087
0.25433818,-0.06396657,0.29525948,0.2080569,0.36829874,0.09655209,0.112865746,-0.1821369,-0.5962603,-0.023575764,-0.18684456,-0.22947979
0.24108493,-0.059868217,0.2943554,0.21148537,0.36775258,0.09839067,0.112865746,-0.1821369,-0.5962603,-0.021062791,-0.18148084,-0.22810245
0.23731573,-0.059006363,0.26979423,0.2135547,0.36844343,0.10331905,0.11945963,-0.19048068,-0.57440174,-0.018535225,-0.17609541,-0.22659111
0.23260438,-0.055589847,0.2873187,0.21376365,0.37562475,0.103415966,0.11945963,-0.19048068,-0.57440174,-0.015990652,-0.17062093,-0.22507405
0.22013299,-0.042309053,0.29656243,0.21137878,0.38414595,0.1021237,0.15501952,-0.20885026,-0.5726241,-0.013494913,-0.16501325,-0.22356176
0.21005398,-0.027295528,0.28970695,0.20934156,0.38771018,0.10645042,0.15501952,-0.20885026,-0.5726241,-0.011041306,-0.15936804,-0.2219491
0.20024046,-0.016394245,0.27665043,0.21159342,0.3966903,0.11412436,0.1711433,-0.22435904,-0.5850378,-0.00857523,-0.15357965,-0.22013664
0.19840136,-0.015013935,0.2813728,0.21305053,0.40826502,0.11969174,0.1711433,-0.22435904,-0.5850378,-0.0060840566,-0.14763708,-0.21820569
0.19476552,-0.016026007,0.27243996,0.21378863,0.42430162,0.120290995,0.1771558,-0.22621134,-0.5456847,-0.0035842443,-0.14145094,-0.21623564
0.18455848,-0.015418157,0.29319,0.2139485,0.4426154,0.116283365,0.1771558,-0.22621134,-0.5456847,-0.0010527177,-0.13501382,-0.21434808
0.17685817,-0.009190748,0.35166144,0.21372128,0.44995204,0.11235782,0.18389922,-0.24077299,-0.53267276,0.0014823184,-0.12846106,-0.21249914
0.18002242,-0.0103156315,0.3617301,0.20865275,0.44908777,0.108992875,0.18389922,-0.24077299,-0.53267276,0.003942457,-0.121939346,-0.21073198
0.18043429,-0.0072798235,0.3802812,0.19891956,0.44308853,0.10652935,0.2117905,-0.25010937,-0.53112733,0.0062133116,-0.1154978,-0.20898747
0.17293225,-0.0023257914,0.38154984,0.19156414,0.4348131,0.10158826,0.2117905,-0.25010937,-0.53112733,0.008367802,-0.10919459,-0.20734596
0.15755802,0.004775637,0.4053638,0.18949145,0.42766443,0.104929365,0.21682537,-0.23856297,-0.53912365,0.010467982,-0.1029893,-0.20563412
0.14476587,0.012606749,0.4052403,0.19361877,0.41765723,0.11043238,0.21682537,-0.23856297,-0.53912365,0.012651093,-0.09694804,-0.20377135
0.15155947,0.008707157,0.39846015,0.19949234,0.40869415,0.11722846,0.23874575,-0.2557855,-0.50785863,0.014929837,-0.09103258,-0.20174527
0.15025157,0.003971757,0.37839532,0.20395684,0.39931256,0.12397821,0.23874575,-0.2557855,-0.50785863,0.01729706,-0.08527474,-0.19956112
0.13711494,0.0064901276,0.37413073,0.20373821,0.38797227,0.12891084,0.2576884,-0.26444954,-0.48953867,0.019646352,-0.07967897,-0.19725752
0.14329171,0.0064608348,0.40674734,0.20104575,0.38162935,0.13476631,0.2576884,-0.26444954,-0.48953867,0.021946855,-0.0741971,-0.1948142
0.14074886,0.004458281,0.4323144,0.19789067,0.3685332,0.1400244,0.25626814,-0.27578133,-0.47262895,0.024172705,-0.068903714,-0.19223237
0.14263713,0.00012892578,0.42176437,0.19504988,0.35472238,0.14106165,0.25626814,-0.27578133,-0.47262895,0.026358444,-0.06383318,-0.18963575
0.14163515,0.0009475027,0.39975333,0.19134802,0.34505993,0.14362448,0.26740026,-0.27838314,-0.454638,0.028464839,-0.058900103,-0.18697214
0.13607907,-0.00260909,0.42221832,0.18937436,0.345139,0.14904885,0.26740026,-0.27838314,-0.454638,0.030539762,-0.05398769,-0.18418288
0.12611067,0.00090178964,0.43956685,0.18684953,0.33945963,0.1501441,0.28756893,-0.2939521,-0.46678782,0.03256207,-0.0491535,-0.18135643
0.12958391,0.00531132,0.4237194,0.17986861,0.33565244,0.15421423,0.28756893,-0.2939521,-0.46678782,0.03445791,-0.04439672,-0.1784389
0.12245138,0.009005053,0.4280157,0.1713714,0.33610713,0.15761228,0.2860731,-0.30217558,-0.44545555,0.03617985,-0.039628983,-0.17542458
0.11580889,0.008534745,0.41634417,0.16023397,0.3393355,0.15726008,0.2860731,-0.30217558,-0.44545555,0.037701376,-0.034831546,-0.1724205
0.108617,0.009995839,0.40953612,0.14903194,0.3416095,0.15044361,0.29749668,-0.30802315,-0.4362129,0.039012086,-0.02998735,-0.16954637
0.1048674,0.021115145,0.43045688,0.14124702,0.34057146,0.14330697,0.29749668,-0.30802315,-0.4362129,0.040198285,-0.025168777,-0.16682649
0.09583559,0.026874982,0.45279598,0.13858205,0.33219284,0.13758098,0.32154822,-0.30824918,-0.4303118,0.041339133,-0.020460173,-0.16424036
0.09326428,0.035784353,0.44672155,0.14226565,0.3206128,0.13290471,0.32154822,-0.30824918,-0.4303118,0.04257679,-0.015932798,-0.16174531
0.08914496,0.038406212,0.44071174,0.15018126,0.31662118,0.13061224,0.3092842,-0.32022488,-0.44014096,0.043971587,-0.011453018,-0.15928173
0.07487752,0.042116567,0.43183804,0.15867616,0.31478766,0.129419,0.3092842,-0.32022488,-0.44014096,0.04555209,-0.0070156977,-0.15685081
0.0644842,0.041715186,0.44549465,0.1643865,0.3146256,0.12619548,0.31089717,-0.3248493,-0.39682305,0.047246452,-0.002569273,-0.15446472
0.057101376,0.04891544,0.44627213,0.16565184,0.31128263,0.12426686,0.31089717,-0.3248493,-0.39682305,0.048984174,0.001812838,-0.15212917
0.04500492,0.05131917,0.44526076,0.16148359,0.30735132,0.124240115,0.3311954,-0.3282609,-0.39993227,0.05063712,0.0061448775,-0.14979005
0.033676583,0.06107307,0.42483687,0.1563624,0.3147905,0.12717077,0.3311954,-0.3282609,-0.39993227,0.05220236,0.010566648,-0.14737129
0.025214944,0.06373699,0.43774438,0.14771077,0.31837282,0.1334089,0.3378632,-0.33971417,-0.3824979,0.05358951,0.015042324,-0.144799
0.019725384,0.06315306,0.42870402,0.13373087,0.3262365,0.13704157,0.3378632,-0.33971417,-0.3824979,0.05471503,0.019613102,-0.14214373
0.018809741,0.059907436,0.4279015,0.11952942,0.33697388,0.13826022,0.33735895,-0.33632988,-0.3694241,0.05555839,0.024349589,-0.13944435
0.010424811,0.065102294,0.4045322,0.1104781,0.34900433,0.13783309,0.33735895,-0.33632988,-0.3694241,0.056241345,0.029248774,-0.13673997
0.0035666004,0.05883212,0.36869025,0.10155478,0.36183274,0.13774808,0.37036985,-0.34641582,-0.38924277,0.056748144,0.034346763,-0.1340282
0.0010659993,0.04904001,0.34315205,0.09148129,0.38098496,0.13737363,0.37036985,-0.34641582,-0.38924277,0.057075072,0.039713327,-0.1312952
0.003267127,0.047932155,0.35388923,0.08248159,0.39628813,0.13557558,0.3682279,-0.35422587,-0.3549353,0.057226226,0.04531902,-0.12857223
0.0022922214,0.05579661,0.36965156,0.07790485,0.40799725,0.13477929,0.3682279,-0.35422587,-0.3549353,0.057307046,0.051084653,-0.12586498
-0.0124066975,0.05610576,0.38885117,0.07516182,0.41398197,0.13785532,0.37487578,-0.34730393,-0.3196137,0.057334978,0.056946527,-0.1230855
-0.02179259,0.055319108,0.39366364,0.07268148,0.41913718,0.1373077,0.37487578,-0.34730393,-0.3196137,0.057334572,0.062872395,-0.12031317
-0.021980796,0.055104226,0.37366223,0.07162719,0.4266384,0.13503695,0.4036275,-0.35719115,-0.335369,0.05731601,0.068923704,-0.11758375
-0.025487347,0.05803503,0.3518424,0.070417024,0.43846458,0.13157032,0.4036275,-0.35719115,-0.335369,0.057294205,0.07514092,-0.11491394
-0.032512803,0.05897453,0.36384034,0.070681386,0.44887465,0.12857214,0.41050202,-0.35959417,-0.3133149,0.05728002,0.08152746,-0.11229491
-0.03396802,0.06505193,0.38143086,0.07251363,0.45600274,0.12294122,0.41050202,-0.35959417,-0.3133149,0.057321467,0.08801332,-0.10979056
-0.040771388,0.070497856,0.38440466,0.07508042,0.45667976,0.11441698,0.4185145,-0.35660625,-0.30836785,0.057413097,0.09453217,-0.10746837
-0.039272323,0.07801353,0.39222097,0.073526375,0.46035257,0.105772786,0.4185145,-0.35660625,-0.30836785,0.057489917,0.1011034,-0.10532427
-0.050922003,0.08271488,0.3811493,0.072098844,0.46841872,0.097877465,0.41694474,-0.36172134,-0.28261137,0.05753569,0.107815936,-0.103325844
-0.058731325,0.082768194,0.40283203,0.07118366,0.47496518,0.08635081,0.41694474,-0.36172134,-0.28261137,0.05757443,0.114626415,-0.10157919
-0.0527278,0.092367716,0.4140706,0.077814,0.48399886,0.07537575,0.44199705,-0.3595283,-0.29391408,0.057735823,0.121595725,-0.10005903
-0.0716504,0.09714478,0.40177417,0.09404954,0.49183702,0.0691596,0.44199705,-0.3595283,-0.29391408,0.058228903,0.12867536,-0.09865713
-0.06817047,0.08865047,0.39002347,0.10404247,0.49576655,0.0580005,0.45163345,-0.3703525,-0.25459087,0.058907267,0.13583909,-0.09747124
-0.08354788,0.09225795,0.41912198,0.108890705,0.48977008,0.044541527,0.45163345,-0.3703525,-0.25459087,0.059681438,0.14291877,-0.09658408
-0.12094767,0.09706257,0.42310166,0.12109626,0.4952278,0.03826685,0.48079532,-0.36214042,-0.2611103,0.06068568,0.150098,-0.09582806
-0.1415376,0.10776205,0.43449545,0.12826392,0.504864,0.035916924,0.48079532,-0.36214042,-0.2611103,0.061842054,0.15740919,-0.095089674
-0.14954056,0.11057062,0.458874,0.1374323,0.50939363,0.036655746,0.50369644,-0.35856867,-0.22916198,0.06317677,0.16479655,-0.09433532
-0.14969863,0.113643624,0.4816451,0.14596686,0.50716007,0.037657257,0.50369644,-0.35856867,-0.22916198,0.06469463,0.17213672,-0.09353042
-0.1576241,0.1082652,0.45768523,0.15021294,0.4980785,0.040564343,0.51923895,-0.36758602,-0.22407949,0.06629702,0.17935006,-0.09266353
-0.173703,0.0982124,0.42542315,0.14744012,0.48956546,0.045033276,0.51923895,-0.36758602,-0.22407949,0.06786551,0.18641803,-0.0916903
-0.16842997,0.09641347,0.38738775,0.14475688,0.48513553,0.04551126,0.5176676,-0.37270105,-0.19832301,0.0693792,0.19343124,-0.09068966
-0.17212835,0.090993494,0.35200763,0.14109701,0.48130283,0.04591642,0.5176676,-0.37270105,-0.19832301,0.07083546,0.20037325,-0.08967829
-0.17862749,0.09088443,0.3399577,0.14088994,0.4773804,0.045302592,0.54994744,-0.37007648,-0.19180036,0.07228385,0.20726904,-0.08868313
-0.18100764,0.09720914,0.32181454,0.14112973,0.47250107,0.04426506,0.54994744,-0.37007648,-0.19180036,0.073748544,0.21408132,-0.08769059
-0.19263045,0.09772253,0.32717347,0.14547843,0.46496406,0.048689775,0.5435479,-0.37768894,-0.15342951,0.07530581,0.22078672,-0.08659029
-0.20790125,0.10046713,0.32936192,0.1512026,0.45785332,0.053685155,0.5435479,-0.37768894,-0.15342951,0.07700155,0.2273645,-0.08538556
-0.21054043,0.098574854,0.31144023,0.16051869,0.45866618,0.055652164,0.5675455,-0.39318073,-0.1609931,0.07888524,0.23396133,-0.0841074
-0.20455481,0.11191302,0.31586933,0.17214099,0.47367713,0.054895338,0.5675455,-0.39318073,-0.1609931,0.081015155,0.2407638,-0.08281779
-0.23266116,0.121384636,0.3414421,0.18440676,0.48660198,0.055144258,0.5706528,-0.38958174,-0.13900745,0.08339086,0.24776474,-0.08147502
-0.24162205,0.12688519,0.35754037,0.19500686,0.5033727,0.052304965,0.5706528,-0.38958174,-0.13900745,0.08598904,0.25500047,-0.08014846
-0.25952408,0.13498186,0.3695929,0.201898,0.52340907,0.050270427,0.5966843,-0.4007874,-0.102959156,0.08872407,0.26254246,-0.078802824
-0.27987072,0.1419275,0.4007845,0.20047508,0.540461,0.043779403,0.5966843,-0.4007874,-0.102959156,0.09143474,0.27033073,-0.07754254
-0.28186473,0.14762278,0.41000056,0.19500667,0.55070966,0.04218657,0.6034817,-0.40008223,-0.07648265,0.094038256,0.2782813,-0.07626915
-0.30064115,0.13870367,0.4050579,0.18808469,0.5561401,0.042749293,0.6034817,-0.40008223,-0.07648265,0.09652768,0.2862939,-0.07494497
-0.30039164,0.13538882,0.3831842,0.18467742,0.56686544,0.039447904,0.63477165,-0.40906543,-0.06169963,0.09894583,0.2944797,-0.07364917
-0.3032775,0.12969062,0.35091782,0.18496862,0.5828474,0.038772635,0.63477165,-0.40906543,-0.06169963,0.10139203,0.30288476,-0.07230401
-0.314981,0.12767082,0.34184027,0.17746611,0.5967597,0.04019149,0.6454751,-0.41139126,-0.035059333,0.10370476,0.311499,-0.070873976
-0.31879678,0.122129016,0.31744576,0.16870937,0.6065895,0.048502028,0.6454751,-0.41139126,-0.035059333,0.10590051,0.32022074,-0.06921148
-0.32470942,0.12392976,0.2981472,0.16394717,0.60843015,0.054434303,0.66201836,-0.41798836,-0.047178984,0.10803325,0.32896385,-0.067384005
-0.32716265,0.11607371,0.28152013,0.1569914,0.6090416,0.06140808,0.66201836,-0.41798836,-0.047178984,0.1100809,0.3376814,-0.06537652
-0.3284333,0.11242832,0.27748132,0.1524753,0.60273516,0.06694791,0.6800882,-0.41691405,-0.0026147366,0.112069346,0.34630096,-0.06324077
-0.32854536,0.108989924,0.2490282,0.15094894,0.59802574,0.071737796,0.6800882,-0.41691405,-0.0026147366,0.11407191,0.3548222,-0.060973883
-0.33325967,0.10700297,0.21834159,0.15121897,0.5989014,0.0764869,0.6859712,-0.43092376,0.02769792,0.1161122,0.36335206,-0.058559418
-0.33552572,0.0967208,0.20363784,0.14809975,0.601235,0.07847324,0.6859712,-0.43092376,0.02769792,0.1181288,0.371892,-0.056078672
-0.3493243,0.09771027,0.19274068,0.14515951,0.5988092,0.08316965,0.7050434,-0.4274304,0.05505824,0.120120905,0.38039112,-0.053476334
-0.35697883,0.09770256,0.20033646,0.14392376,0.5939416,0.0830947,0.7050434,-0.4274304,0.05505824,0.12211484,0.38880122,-0.050851345
-0.34834042,0.096840195,0.21806383,0.1384868,0.5855158,0.08686004,0.71235746,-0.43929595,0.05951917,0.12402891,0.39708585,-0.04812193
-0.37301695,0.107388034,0.22879457,0.13304964,0.5751171,0.08524205,0.71235746,-0.43929595,0.05951917,0.12585092,0.4052048,-0.045437336
-0.3712889,0.10255908,0.2727499,0.1274612,0.56700337,0.07862444,0.7154661,-0.43569696,0.08150482,0.12753591,0.4132332,-0.04288888
-0.37872484,0.11047705,0.24214888,0.12674743,0.569171,0.0728492,0.7154661,-0.43569696,0.08150482,0.12920478,0.42129236,-0.040444136
-0.39097258,0.12666209,0.25850868,0.1307451,0.56897736,0.0716414,0.74213153,-0.43812847,0.11351997,0.13095713,0.4293606,-0.038011312
-0.4030765,0.13214654,0.29026747,0.12978503,0.54747707,0.07235427,0.74213153,-0.43812847,0.11351997,0.13270777,0.43709677,-0.035582066
-0.40862635,0.13122468,0.29957914,0.12752476,0.52419037,0.07148834,0.7430336,-0.44841886,0.16529357,0.13440348,0.44450578,-0.03320265
-0.41273266,0.13141361,0.30126,0.12658,0.5037054,0.07144703,0.7430336,-0.44841886,0.16529357,0.13609144,0.45159972,-0.030861855
-0.43385026,0.13941906,0.28642988,0.12905951,0.49171323,0.0730637,0.7425278,-0.44503456,0.17836732,0.13783807,0.45852318,-0.028490782
-0.4441943,0.13692714,0.28743982,0.13286962,0.47944337,0.07618263,0.7425278,-0.44503456,0.17836732,0.13969465,0.4652409,-0.026063204
-0.43908316,0.12835997,0.27635336,0.13319272,0.46940818,0.07723208,0.7457122,-0.4445439,0.19593036,0.14156528,0.47181776,-0.023615122
-0.45599747,0.12951607,0.26089358,0.13479963,0.46050045,0.0787121,0.7457122,-0.4445439,0.19593036,0.14349492,0.47824258,-0.021136284
-0.46882486,0.13259982,0.27680707,0.13038632,0.44434008,0.08316329,0.7817578,-0.44792253,0.2025199,0.14536153,0.48442546,-0.018600225
-0.46151334,0.13184915,0.25767684,0.12443912,0.43273875,0.08604284,0.7817578,-0.44792253,0.2025199,0.14714424,0.4904133,-0.015989542
-0.4680577,0.13954881,0.25011873,0.12107801,0.42586598,0.08576214,0.76726705,-0.45541352,0.24036598,0.14886077,0.49631098,-0.013380051
-0.48130015,0.14404398,0.26053405,0.11891091,0.41515696,0.08309814,0.76726705,-0.45541352,0.24036598,0.15053095,0.5020449,-0.010848999
-0.47831592,0.14172469,0.2512319,0.11649014,0.40523136,0.07967204,0.7794016,-0.4555952,0.24115294,0.15212761,0.5076556,-0.008411169
-0.48563838,0.14069031,0.21927285,0.11352871,0.40047336,0.08099344,0.7794016,-0.4555952,0.24115294,0.15369299,0.51317596,-0.005935669
-0.49174613,0.14421934,0.22257948,0.11097787,0.3948564,0.0803955,0.78165907,-0.46063304,0.2714973,0.15520436,0.5186262,-0.003472805
-0.4971516,0.14405382,0.23462176,0.10350956,0.3816386,0.073836416,0.78165907,-0.46063304,0.2714973,0.15653048,0.52389216,-0.0011885166
-0.48902312,0.14765134,0.20681763,0.09555135,0.37327594,0.0657936,0.78953296,-0.460616,0.27634758,0.157637,0.52907646,0.00089359283
-0.4975771,0.15579668,0.19522285,0.09147122,0.3655534,0.060587432,0.78953296,-0.460616,0.27634758,0.15863612,0.53415287,0.0028452873
-0.5011978,0.16124079,0.20484543,0.08794645,0.35415208,0.055382855,0.79257697,-0.46309626,0.29381204,0.15951681,0.53909457,0.0046494007
-0.50430083,0.17142293,0.18678164,0.082544744,0.34391192,0.053845897,0.79257697,-0.46309626,0.29381204,0.16028556,0.5438795,0.006393671
-0.50537264,0.18486194,0.16694212,0.08313347,0.3382506,0.05273475,0.81627387,-0.46615463,0.30394018,0.16105138,0.5485977,0.008090019
-0.49708116,0.19119324,0.18021631,0.08717856,0.33967346,0.0550055,0.81627387,-0.46615463,0.30394018,0.1619323,0.5533142,0.009865999
-0.4934487,0.19457681,0.1641047,0.09311422,0.34052995,0.060064167,0.80875474,-0.4633382,0.29486293,0.16297092,0.5580352,0.011773348
-0.5080737,0.19987689,0.14701223,0.10499248,0.34656575,0.06517235,0.80875474,-0.4633382,0.29486293,0.1643088,0.562809,0.01383543
-0.5164782,0.20449704,0.12093401,0.112111256,0.34374914,0.072157785,0.82237107,-0.48030293,0.32992727,0.16584201,0.5675257,0.016076326
-0.5353252,0.2032409,0.106781006,0.11725615,0.3413616,0.0803992,0.82237107,-0.48030293,0.32992727,0.16755989,0.57215935,0.018511295
-0.5483639,0.202414,0.07953572,0.12392971,0.34008807,0.08337779,0.80951804,-0.4765995,0.34653795,0.16943696,0.576772,0.021039486
-0.52845293,0.18541789,0.11440396,0.12554272,0.33263117,0.08401227,0.80951804,-0.4765995,0.34653795,0.1713634,0.58125657,0.02356553
-0.5200638,0.17326453,0.08411312,0.1254548,0.32939714,0.08248061,0.8122706,-0.47583407,0.37275225,0.1732768,0.58570856,0.026060343
-0.52291024,0.17542255,0.030906916,0.12922546,0.33470872,0.08199601,0.8122706,-0.47583407,0.37275225,0.17528889,0.5902216,0.028583527
-0.5148344,0.17391667,0.012685537,0.1327645,0.34070802,0.083184734,0.8203711,-0.48514205,0.36433327,0.17739475,0.5948241,0.031186342
-0.5128097,0.17132907,0.002585888,0.1333547,0.34276107,0.08337408,0.8203711,-0.48514205,0.36433327,0.17953944,0.5994369,0.03381324
-0.5151098,0.17360894,-0.022578716,0.13560739,0.34384346,0.083988965,0.82347983,-0.48154426,0.38631886,0.18174252,0.60406965,0.036475897
-0.5279665,0.17922242,-0.011073351,0.13635704,0.34590575,0.08783163,0.82347983,-0.48154426,0.38631886,0.18402004,0.60869735,0.039266348
-0.53640103,0.1825926,-0.0034852028,0.1324049,0.34537414,0.09128635,0.83013695,-0.48380876,0.4126969,0.18625724,0.61330885,0.042149305
-0.54612064,0.18478633,-0.0013730526,0.12618956,0.3473123,0.09354411,0.83013695,-0.48380876,0.4126969,0.18841887,0.61792,0.045128107
-0.55615824,0.19383173,-0.0064935684,0.12097016,0.35236678,0.09205747,0.8403453,-0.49193907,0.443469,0.19048086,0.62261635,0.04810381
-0.5610931,0.19695096,0.011012316,0.11618341,0.353995,0.09063782,0.8403453,-0.49193907,0.443469,0.19246271,0.6273242,0.05108452
-0.5683295,0.2082742,-0.018152714,0.1096372,0.35845295,0.08814782,0.83196586,-0.48857182,0.4516908,0.19430876,0.63211405,0.054038763
-0.5823374,0.21207081,-0.025121927,0.1043725,0.36200583,0.089462064,0.83196586,-0.48857182,0.4516908,0.19609314,0.6369314,0.057068348
-0.57934946,0.20886703,-0.016515732,0.09653094,0.35529125,0.0939024,0.838774,-0.49705416,0.4692238,0.19776185,0.6416399,0.060195684
-0.5870098,0.20865227,-0.009322882,0.08609867,0.3498991,0.09906514,0.838774,-0.49705416,0.4692238,0.19928814,0.6462301,0.06344843
-0.6015685,0.21110323,-0.029630184,0.081894755,0.34803754,0.102061205,0.85097176,-0.49115664,0.47453183,0.20076536,0.65078706,0.06676626
-0.61412424,0.21685486,-0.03311622,0.07733333,0.34499183,0.10531016,0.85097176,-0.49115664,0.47453183,0.20220229,0.6552688,0.07018852
-0.6205255,0.22193275,-0.038280606,0.07084294,0.34458184,0.108794264,0.84146327,-0.5023669,0.49091697,0.20355278,0.65973663,0.07371616
-0.62198985,0.21701105,-0.03417647,0.06599596,0.34488365,0.107409835,0.84146327,-0.5023669,0.49091697,0.20481904,0.66419816,0.077227116
-0.63638395,0.21695459,-0.05570686,0.06075287,0.34803116,0.103355326,0.8288246,-0.4988008,0.5032021,0.20595677,0.6687328,0.080673695
-0.65567106,0.21667951,-0.03632486,0.05911553,0.35177594,0.098555386,0.8288246,-0.4988008,0.5032021,0.20704558,0.6733275,0.08403325
-0.6681276,0.22651905,-0.05239451,0.0576068,0.35903528,0.09298245,0.827113,-0.50688684,0.52886003,0.20807129,0.6780624,0.08731413
-0.67002225,0.22996485,-0.025052547,0.06051956,0.3678299,0.09225422,0.827113,-0.50688684,0.52886003,0.20918775,0.68290997,0.09062767
-0.6741854,0.22552158,-0.018638372,0.06618856,0.37495342,0.09236253,0.8268338,-0.5128276,0.5286646,0.21044075,0.6878685,0.09401202
-0.68095744,0.22101168,-0.033005238,0.07206926,0.3782453,0.09359284,0.8268338,-0.5128276,0.5286646,0.21185485,0.69285023,0.0974493
-0.692627,0.22366579,-0.053965688,0.079008855,0.3839846,0.094767004,0.8466247,-0.51285595,0.5386273,0.21344176,0.69791603,0.10096288
-0.7031828,0.22194105,-0.050342202,0.08577053,0.38810277,0.093658775,0.8466247,-0.51285595,0.5386273,0.21518692,0.7030279,0.10449743
-0.70332825,0.22069038,-0.06759429,0.08906053,0.39181277,0.09299357,0.8533588,-0.5182288,0.5605828,0.2170121,0.70820284,0.10805559
-0.7010317,0.20862105,-0.0761106,0.090081036,0.39194152,0.093027204,0.8533588,-0.5182288,0.5605828,0.21888746,0.71336067,0.111647844
-0.7005357,0.19953145,-0.09962523,0.08673481,0.3901204,0.092476666,0.84831315,-0.52058876,0.57752264,0.2207022,0.7185024,0.11524439
-0.7133461,0.21347898,-0.12970614,0.08152781,0.3901115,0.09556911,0.84831315,-0.52058876,0.57752264,0.22247735,0.7236093,0.118947744
-0.7085947,0.19676627,-0.12179494,0.07465157,0.38158396,0.092837065,0.8431935,-0.5198392,0.59888506,0.22408289,0.7286165,0.12256169
-0.69676834,0.19143671,-0.16114771,0.06931029,0.37702635,0.086554185,0.8431935,-0.5198392,0.59888506,0.22553116,0.73357356,0.12601852
-0.7029734,0.18915561,-0.17169094,0.069043204,0.3709214,0.08271682,0.8626296,-0.5227,0.61307657,0.22692992,0.73847234,0.12935472
-0.69883764,0.18176359,-0.15926254,0.064285606,0.3605585,0.07785623,0.8626296,-0.5227,0.61307657,0.22818144,0.74323297,0.13254619
-0.70435375,0.18419033,-0.1863805,0.060404167,0.35068858,0.07427785,0.85036725,-0.5346757,0.6032474,0.2293021,0.74788326,0.13562846
-0.7072222,0.18566835,-0.17814493,0.058933835,0.346897,0.07214321,0.85036725,-0.5346757,0.6032474,0.23038359,0.75247407,0.13863754
-0.70842314,0.18193783,-0.1876322,0.05631019,0.3406534,0.069540665,0.86212534,-0.5193157,0.6261486,0.23137638,0.7570002,0.14154482
-0.7135882,0.18226115,-0.19283926,0.054361917,0.336488,0.066616625,0.86212534,-0.5193157,0.6261486,0.23230822,0.7614679,0.14438796
-0.7186002,0.18397576,-0.1934365,0.052087814,0.3335366,0.065032005,0.8490657,-0.52466244,0.6381413,0.23317611,0.7659134,0.14718986
-0.7232191,0.19080655,-0.19637465,0.05170638,0.33235562,0.0656845,0.8490657,-0.52466244,0.6381413,0.23406261,0.77032316,0.15001798
-0.71943724,0.19661392,-0.19860184,0.05299397,0.32705963,0.06395131,0.8517551,-0.5299752,0.6598345,0.23494688,0.77467865,0.15278697
-0.7197076,0.20281062,-0.20422006,0.054990083,0.3220658,0.06531747,0.8517551,-0.5299752,0.6598345,0.23589519,0.77894026,0.15557909
-0.71615654,0.20362008,-0.1934762,0.056815617,0.31695494,0.06810646,0.86295193,-0.5264977,0.6823447,0.23690686,0.7831248,0.15841675
-0.71079224,0.2038085,-0.20853007,0.059205536,0.3100832,0.07233838,0.86295193,-0.5264977,0.6823447,0.23802072,0.78717357,0.16135931
-0.7217084,0.21071137,-0.20652926,0.063077115,0.30330795,0.075559795,0.8753764,-0.52992517,0.6743852,0.23923987,0.7911187,0.16435337
-0.7281728,0.21585149,-0.20343208,0.06543032,0.29232162,0.07722969,0.8753764,-0.52992517,0.6743852,0.24051791,0.79488325,0.16735816
-0.72662157,0.21515657,-0.20642567,0.062923744,0.28076425,0.07910428,0.8657909,-0.53802705,0.6951928,0.24174482,0.7984843,0.17036247
-0.7328309,0.2163523,-0.20605493,0.06201192,0.26386374,0.08056392,0.8657909,-0.53802705,0.6951928,0.24294513,0.8018221,0.17332053
-0.734821,0.21453848,-0.19438362,0.060820423,0.24711111,0.080686785,0.8711265,-0.53891516,0.6695049,0.24408083,0.8049336,0.17620158
-0.7325475,0.21123286,-0.19865549,0.059966087,0.2332198,0.07929865,0.8711265,-0.53891516,0.6695049,0.24516022,0.8078406,0.17896938
-0.73805076,0.20767638,-0.20483148,0.060209043,0.22205223,0.08075987,0.86110145,-0.5375535,0.70790565,0.24623361,0.8105925,0.1817174
-0.741902,0.21206227,-0.2119807,0.060022946,0.21207236,0.08320248,0.86110145,-0.5375535,0.70790565,0.24732219,0.8131742,0.18448496
-0.74323744,0.21259564,-0.2138983,0.059057202,0.20398454,0.084402606,0.8688256,-0.5313209,0.72160095,0.24838522,0.815645,0.18722582
-0.7471468,0.21951868,-0.21681952,0.059151616,0.19832787,0.086302616,0.8688256,-0.5313209,0.72160095,0.24947357,0.8180102,0.19001389
-0.74799734,0.22273216,-0.21681178,0.061450478,0.19338511,0.09190758,0.86797446,-0.5399566,0.72995806,0.250667,0.8202838,0.19292474
-0.7434726,0.22220753,-0.22108078,0.06345561,0.19212325,0.09812983,0.86797446,-0.5399566,0.72995806,0.25199348,0.82248735,0.19601583
-0.7457061,0.22514877,-0.22927368,0.06721452,0.1928478,0.10653279,0.86371535,-0.53975904,0.7340214,0.25350904,0.8246614,0.19934368
-0.74742746,0.22306949,-0.22972405,0.0723846,0.19681387,0.113928676,0.86371535,-0.53975904,0.7340214,0.2552535,0.8268302,0.20291877
-0.7494405,0.22893222,-0.24167967,0.07634954,0.20038804,0.1218976,0.84235317,-0.5448457,0.74981344,0.2571968,0.82901,0.20675278
-0.7404028,0.23508623,-0.25689125,0.0804773,0.20537832,0.12754071,0.84235317,-0.5448457,0.74981344,0.25933114,0.83120626,0.21078372
-0.7349816,0.24199447,-0.27111328,0.0853847,0.20933624,0.13254641,0.8501621,-0.55090797,0.7501426,0.26164755,0.83343357,0.21499443
-0.7232198,0.2466349,-0.29067302,0.09042176,0.21073994,0.13679078,0.8501621,-0.55090797,0.7501426,0.26414514,0.8356333,0.219347
-0.716262,0.24545762,-0.30103326,0.09568562,0.21289727,0.14244926,0.8532801,-0.55649656,0.7631862,0.266837,0.837832,0.22388339
-0.7155092,0.24472144,-0.32324982,0.10042266,0.2155717,0.14846785,0.8532801,-0.55649656,0.7631862,0.26973394,0.8400074,0.22862697
-0.7178029,0.24610135,-0.34235322,0.10583213,0.2149131,0.15210953,0.86093956,-0.55634326,0.77236205,0.27279347,0.8421516,0.23346972
-0.7183599,0.24539497,-0.3568468,0.10992673,0.21516101,0.15540297,0.86093956,-0.55634326,0.77236205,0.27600154,0.8442535,0.23844194
-0.71644604,0.24623401,-0.36668348,0.112426385,0.2181422,0.15933646,0.8475252,-0.56452245,0.7885802,0.2793325,0.846371,0.24355912
-0.7255397,0.2496627,-0.3800484,0.11254576,0.22226748,0.16131777,0.8475252,-0.56452245,0.7885802,0.28273055,0.8485063,0.24878812
-0.72893125,0.25126803,-0.38883364,0.11413946,0.22599593,0.15867682,0.84298545,-0.57026553,0.792448,0.28614825,0.85070884,0.25399232
-0.7255916,0.25519985,-0.3955561,0.1134043,0.22796424,0.15518557,0.84298545,-0.57026553,0.792448,0.28953475,0.8529345,0.25914073
-0.7243012,0.25364214,-0.39090645,0.11191634,0.22919346,0.15420946,0.83397204,-0.5756714,0.804703,0.29289457,0.8551825,0.26429582
-0.7317782,0.2528262,-0.40500188,0.1103109,0.22954457,0.15311396,0.83397204,-0.5756714,0.804703,0.29623294,0.8574158,0.2694466
-0.7361746,0.2506617,-0.40784168,0.10846038,0.22687264,0.14656097,0.8372304,-0.5782902,0.81784356,0.29944554,0.859656,0.27441216
-0.73443246,0.24526998,-0.3968333,0.10642882,0.22456102,0.13762309,0.8372304,-0.5782902,0.81784356,0.30250815,0.861901,0.27914333
-0.72835815,0.24130705,-0.3945427,0.10413122,0.21934128,0.12771972,0.8238916,-0.58957773,0.82964087,0.30537722,0.86414516,0.28358912
-0.7406112,0.24302751,-0.40327013,0.10278111,0.21264261,0.12034581,0.8238916,-0.58957773,0.82964087,0.30811122,0.86632603,0.28779173
-0.74569297,0.2466509,-0.41095746,0.1001883,0.20489919,0.11436375,0.81643885,-0.580682,0.825083,0.31068707,0.86844695,0.29178452
-0.7487629,0.23480132,-0.4093765,0.09665724,0.19918683,0.112835005,0.81643885,-0.580682,0.825083,0.31316736,0.8704796,0.29570794
-0.75832915,0.22566064,-0.41515768,0.093086526,0.19051066,0.10550903,0.8106175,-0.59478587,0.8459575,0.31544432,0.8724519,0.29938126
-0.76977926,0.21729545,-0.4419788,0.08837341,0.18599029,0.0989563,0.8106175,-0.59478587,0.8459575,0.31753382,0.8743904,0.30284286
-0.7745267,0.210161,-0.45214844,0.082611255,0.18025771,0.088652804,0.8338085,-0.59446114,0.8691594,0.3193438,0.8763324,0.30596662
-0.77564824,0.20342587,-0.4680413,0.07375611,0.17742832,0.08000569,0.8338085,-0.59446114,0.8691594,0.32085907,0.87828326,0.3088565
-0.7781944,0.19611686,-0.46120512,0.065599,0.17397793,0.070894375,0.8259348,-0.594477,0.8643092,0.32207084,0.88026357,0.3114655
-0.78764594,0.19111297,-0.4670831,0.059992105,0.17119285,0.06296967,0.8259348,-0.594477,0.8643092,0.32305992,0.8822498,0.3138485
-0.7987424,0.19313589,-0.46292186,0.0518159,0.1687337,0.052941836,0.82203025,-0.59144586,0.8641438,0.3237333,0.8842879,0.31593037
-0.8025397,0.1968277,-0.44385362,0.044712447,0.16588266,0.04473775,0.82203025,-0.59144586,0.8641438,0.32414737,0.8863346,0.31777358
-0.8061113,0.20685366,-0.42778075,0.03725903,0.16162544,0.039309144,0.8092621,-0.6000384,0.86738837,0.32431525,0.88837683,0.319443
-0.81317407,0.21885456,-0.39236057,0.031999785,0.1534465,0.0357779,0.8092621,-0.6000384,0.86738837,0.3243018,0.8903202,0.3209374
-0.8222514,0.23588564,-0.35510373,0.030584842,0.14095569,0.03392396,0.8135875,-0.5941579,0.8678462,0.3241744,0.89212006,0.3222742
-0.8413707,0.256345,-0.3112526,0.032433458,0.12561601,0.034017175,0.8135875,-0.5941579,0.8678462,0.32402512,0.8936973,0.3234856
-0.8742566,0.26273775,-0.287413,0.032262463,0.11496088,0.040064644,0.8246549,-0.60283893,0.8813159,0.32390878,0.8950972,0.32477355
-0.88064855,0.2649876,-0.24961042,0.033838745,0.10990073,0.03668858,0.8246549,-0.60283893,0.8813159,0.32375938,0.89644057,0.32592797
-0.88248724,0.2726103,-0.21671021,0.03395414,0.09916475,0.025349675,0.8290544,-0.60006565,0.87735116,0.323392,0.8977345,0.3266635
-0.8846614,0.27061588,-0.19118762,0.03495199,0.07782719,0.012229126,0.8290544,-0.60006565,0.87735116,0.3227619,0.8988224,0.32685256
-0.8849588,0.27029762,-0.18735206,0.035551198,0.049245555,0.0002827458,0.8129414,-0.59374446,0.88082135,0.32183185,0.8996216,0.32645464
-0.8835717,0.26114517,-0.1826886,0.03460098,0.014932407,-0.007983565,0.8129414,-0.59374446,0.88082135,0.32061297,0.90000004,0.3255303
