ax,ay,az,gx,gy,gz,mx,my,mz,phi,theta,psi
-0.75084835,0.32573175,0.34582424,0.0044667274,0.3559816,-0.39503628,0.89470327,0.13692604,0.47433853,0.3630022,0.75063676,-0.6440146
-0.7477887,0.337609,0.33952737,-0.019069254,0.36245757,-0.41370302,0.89470327,0.13692604,0.47433853,0.36092615,0.7530763,-0.64552855
-0.7441718,0.3482824,0.33834553,-0.04449948,0.35876554,-0.42807713,0.8971914,0.12868357,0.4954667,0.35823107,0.7555302,-0.6469574
-0.7397018,0.3484987,0.33776414,-0.056464277,0.339485,-0.42315105,0.8971914,0.12868357,0.4954667,0.35531503,0.75773376,-0.6488106
-0.75551605,0.33242285,0.3292365,-0.05420749,0.30079207,-0.40559673,0.8990406,0.14836162,0.46984708,0.35250834,0.7594272,-0.6508796
-0.7602439,0.32284394,0.31009543,-0.03993079,0.2549218,-0.38845384,0.8990406,0.14836162,0.46984708,0.3500675,0.76050806,-0.6521847
-0.7583344,0.3201893,0.2691157,-0.02261965,0.20615488,-0.3778071,0.88337636,0.15535656,0.5058378,0.34798676,0.7609878,-0.6534772
-0.73901373,0.3169192,0.21912754,-0.0041657537,0.16691244,-0.37148994,0.88337636,0.15535656,0.5058378,0.34629017,0.76097804,-0.6546645
-0.71278083,0.31447953,0.1838336,0.011093907,0.14615808,-0.37509182,0.8870845,0.15225501,0.5007488,0.34484583,0.76074487,-0.6558621
-0.70269775,0.30751526,0.18755424,0.02609592,0.14106183,-0.38326725,0.8870845,0.15225501,0.5007488,0.34364992,0.7604747,-0.65742826
-0.65646267,0.29360616,0.23147357,0.037375405,0.13374534,-0.38990384,0.8956629,0.14524333,0.45882505,0.34261936,0.76014787,-0.6590171
-0.70767725,0.31415254,0.22463429,0.048977442,0.105736226,-0.4025515,0.8956629,0.14524333,0.45882505,0.34171915,0.7595336,-0.66117764
-0.74364203,0.31428492,0.28529394,0.06461009,0.09819983,-0.40515563,0.9000001,0.15667892,0.45433366,0.34109753,0.75884885,-0.6636579
-0.7534093,0.31602356,0.33980083,0.08431248,0.10441918,-0.39197865,0.9000001,0.15667892,0.45433366,0.34097353,0.7581792,-0.6655569
-0.7491481,0.31956702,0.3335749,0.09971108,0.11724138,-0.37191,0.89110243,0.16091853,0.50142854,0.34129453,0.7575939,-0.666883
-0.73317045,0.31284586,0.31752944,0.10554912,0.13087174,-0.34901845,0.89110243,0.16091853,0.50142854,0.34190628,0.75707823,-0.6676266
-0.7077053,0.29608777,0.300686,0.09989023,0.13531268,-0.33602363,0.8918779,0.1603791,0.48026544,0.34248742,0.7565756,-0.6681094
-0.7020239,0.28204864,0.25035274,0.08469588,0.1306435,-0.33592203,0.8918779,0.1603791,0.48026544,0.34277117,0.75601035,-0.66852856
-0.69995135,0.26931426,0.21022844,0.06624177,0.12993526,-0.34094334,0.88779163,0.15475792,0.48499507,0.34264505,0.7554611,-0.6689017
-0.6955889,0.25057447,0.18711305,0.0511987,0.12675212,-0.35160506,0.88779163,0.15475792,0.48499507,0.34215337,0.7549073,-0.66972303
-0.69726795,0.24385522,0.18179631,0.041387714,0.123695344,-0.36130372,0.88854754,0.17220336,0.48571175,0.34138834,0.754364,-0.6712582
-0.69898,0.24127826,0.17537117,0.037441574,0.120445594,-0.36984536,0.88854754,0.17220336,0.48571175,0.3404963,0.7538013,-0.67255163
-0.6954244,0.24194182,0.1686579,0.03645201,0.11558786,-0.3747861,0.8877232,0.15780026,0.49040645,0.33954054,0.75320274,-0.67353654
-0.69542336,0.25271153,0.15616333,0.036798175,0.11738735,-0.37446254,0.8877232,0.15780026,0.49040645,0.33860368,0.7526188,-0.67495203
-0.688357,0.26116806,0.18922853,0.042626426,0.12620845,-0.36882213,0.8969989,0.16228336,0.4436689,0.3378185,0.752126,-0.6763599
-0.6871448,0.26367974,0.18555164,0.05208699,0.13656017,-0.35823366,0.8969989,0.16228336,0.4436689,0.33731154,0.75170636,-0.67730904
-0.6842629,0.27119726,0.19650316,0.059704803,0.14977273,-0.34720254,0.894946,0.15173233,0.4855187,0.3370335,0.75140536,-0.6774082
-0.6792061,0.26753002,0.21747363,0.064893484,0.16003872,-0.33889273,0.894946,0.15173233,0.4855187,0.33693027,0.7511911,-0.6778023
-0.69234884,0.26424712,0.23687685,0.070703864,0.17342125,-0.3311587,0.8816539,0.17205258,0.47448838,0.33699304,0.7511194,-0.67865396
-0.6990988,0.2561922,0.24844825,0.07568638,0.18165854,-0.32616478,0.8816539,0.17205258,0.47448838,0.3372075,0.7511123,-0.6786635
-0.6898755,0.24992141,0.24193704,0.0762051,0.17980076,-0.32576668,0.88602054,0.1565114,0.4371752,0.33742434,0.7510884,-0.6784401
-0.68214375,0.24410349,0.25465572,0.07616319,0.18848571,-0.32305238,0.88602054,0.1565114,0.4371752,0.33767474,0.7511499,-0.67835045
-0.66939396,0.23470326,0.2578392,0.074351706,0.19110903,-0.32705426,0.8895154,0.17152877,0.45925838,0.33785272,0.75126743,-0.67876387
-0.65527844,0.23451322,0.2693596,0.065751776,0.16174711,-0.34209365,0.8895154,0.17152877,0.45925838,0.3377468,0.75108457,-0.6792321
-0.63465905,0.24463843,0.2572044,0.04307919,0.061236866,-0.38750163,0.8843944,0.1696245,0.49585283,0.33679375,0.749896,-0.68096566
-0.64785516,0.25791842,0.18343687,0.01548494,-0.026174441,-0.43779936,0.8843944,0.1696245,0.49585283,0.33489865,0.74785566,-0.6843977
-0.6459894,0.25700194,0.14369929,0.0060714,-0.060612544,-0.4619772,0.8912587,0.17031585,0.41163766,0.33262366,0.74549913,-0.688643
-0.64267534,0.25490165,0.12155235,0.014043249,-0.06639451,-0.46475458,0.8912587,0.17031585,0.41163766,0.3305039,0.74306864,-0.69284487
-0.6443177,0.26785082,0.13077593,0.026484426,-0.06529251,-0.46250844,0.8819065,0.17786698,0.47472668,0.3286456,0.74064165,-0.69674253
-0.6463451,0.27394623,0.15850472,0.035239678,-0.07371053,-0.46381575,0.8819065,0.17786698,0.47472668,0.32696432,0.7381091,-0.7009194
-0.57652044,0.27847928,0.032344818,0.045968104,-0.022736117,-0.4518757,0.8796122,0.1859743,0.4483081,0.32560864,0.73613554,-0.704782
-0.4781124,0.24836315,0.0014935732,0.108844414,0.40481803,-0.42222813,0.8796122,0.1859743,0.4483081,0.32603472,0.739049,-0.7065153
-0.7969525,0.3724902,0.4611771,0.10660486,0.4014747,-0.39862573,0.8817712,0.18395168,0.48554748,0.3265553,0.74185157,-0.70745826
-0.7744315,0.343984,0.44474638,0.115527555,0.35046998,-0.3792042,0.8817712,0.18395168,0.48554748,0.32734928,0.7439904,-0.7082839
-0.6721581,0.3457625,0.4379636,0.11056249,0.34459984,-0.3535939,0.86114895,0.18944776,0.4574039,0.32819617,0.7459855,-0.7088461
-0.6700039,0.34475017,0.32191944,0.09573835,0.3024353,-0.35377574,0.86114895,0.18944776,0.4574039,0.3287245,0.74748003,-0.70917964
-0.68009144,0.33589035,0.26093352,0.0897718,0.30648294,-0.3496353,0.8745582,0.18102771,0.4794953,0.3291564,0.74901205,-0.7091522
-0.6558306,0.31052786,0.28384078,0.091362216,0.3111335,-0.3419857,0.8745582,0.18102771,0.4794953,0.3296826,0.7505689,-0.7091646
-0.63527375,0.2887407,0.29167175,0.087818414,0.2893966,-0.3553372,0.8795341,0.19800854,0.4646595,0.33002156,0.7519257,-0.7100165
-0.6454413,0.27701786,0.2850542,0.08529822,0.24678639,-0.38180676,0.8795341,0.19800854,0.4646595,0.33011013,0.75286555,-0.7112136
-0.6580218,0.28232312,0.26365376,0.078040406,0.20892318,-0.40762854,0.878459,0.17779103,0.46911395,0.32984358,0.75345135,-0.71273017
-0.66847235,0.28887135,0.23498571,0.06826154,0.1734472,-0.42751154,0.878459,0.17779103,0.46911395,0.32922715,0.75368786,-0.7152889
-0.67486715,0.30657786,0.22627926,0.056059513,0.14247242,-0.43417677,0.8833108,0.19186467,0.4541611,0.3282886,0.7535893,-0.71829414
-0.67764777,0.30697668,0.227059,0.043274295,0.10967413,-0.43856463,0.8833108,0.19186467,0.4541611,0.32704955,0.75311375,-0.72131896
-0.69577193,0.30725095,0.22338533,0.03064163,0.06975627,-0.4436471,0.8756418,0.19225332,0.46409887,0.32548696,0.75218886,-0.7245066
-0.70863813,0.3156376,0.22089815,0.017335135,0.032671347,-0.44811714,0.8756418,0.19225332,0.46409887,0.32361102,0.7508367,-0.7279897
-0.7061264,0.30539575,0.1899209,0.015881322,0.019505799,-0.43050545,0.85839045,0.20985961,0.45791936,0.32180792,0.7492758,-0.7313745
-0.7101253,0.29866034,0.15741527,0.015010688,0.055012614,-0.41358042,0.85839045,0.20985961,0.45791936,0.3201388,0.7480648,-0.73392177
-0.7109523,0.29090568,0.16943431,0.010881994,0.11218627,-0.3988748,0.86152697,0.19817048,0.45776325,0.31852353,0.74747556,-0.7356391
-0.7123721,0.28967553,0.22524941,0.008541379,0.16015677,-0.3854599,0.86152697,0.19817048,0.45776325,0.3169924,0.74740064,-0.737185
-0.71378094,0.27895868,0.27651477,0.0019669607,0.2015685,-0.38209113,0.87263215,0.20684965,0.4643761,0.31537575,0.7478033,-0.7385433
-0.69685155,0.28104788,0.31900764,-0.006098293,0.2134836,-0.37958607,0.87263215,0.20684965,0.4643761,0.3136298,0.7483305,-0.7397971
-0.691375,0.26514694,0.33839345,-0.0076501966,0.2064184,-0.37612876,0.87782156,0.20571157,0.42236817,0.3118632,0.7487679,-0.7410052
-0.6845381,0.26457852,0.34105086,-0.016263537,0.19407813,-0.3841045,0.87782156,0.20571157,0.42236817,0.3098696,0.74907726,-0.7424271
-0.6958991,0.2613277,0.35438442,-0.023294754,0.184059,-0.3906809,0.8737842,0.21503292,0.44357032,0.30767763,0.7492911,-0.74411464
-0.69192195,0.26619542,0.39303577,-0.040782697,0.15697068,-0.40604767,0.8737842,0.21503292,0.44357032,0.30502322,0.7492226,-0.7461827
-0.68433917,0.2513903,0.40965593,-0.054562807,0.12452554,-0.41244859,0.88008785,0.2245799,0.4816085,0.30202365,0.74879056,-0.7484865
-0.68447006,0.24053264,0.37598383,-0.05642833,0.06842845,-0.40475023,0.88008785,0.2245799,0.4816085,0.29900953,0.7476689,-0.7507384
-0.70997316,0.23477806,0.34742773,-0.061659336,0.030872345,-0.41336927,0.8714818,0.23213214,0.42809176,0.29580605,0.74612856,-0.7534542
-0.7221725,0.23714219,0.28212738,-0.059865102,0.011938542,-0.40914,0.8714818,0.23213214,0.42809176,0.2926665,0.7443425,-0.7559335
-0.7236922,0.22123706,0.25239372,-0.0428446,0.01237838,-0.39513725,0.86286426,0.2152105,0.44260716,0.28995854,0.74252075,-0.7575908
-0.7167505,0.2018699,0.2284416,-0.014032058,0.028339654,-0.38084817,0.86286426,0.2152105,0.44260716,0.28793663,0.7408461,-0.7593076
-0.71692574,0.2073257,0.24000251,0.011711989,0.04609941,-0.37834564,0.87018335,0.23902543,0.4706604,0.28644943,0.73937815,-0.7611234
-0.7229928,0.20150468,0.23300219,0.034747764,0.06979741,-0.37701824,0.87018335,0.23902543,0.4706604,0.28545323,0.73817766,-0.7626443
-0.71134615,0.20719568,0.29781342,0.04158771,0.08144706,-0.38687485,0.8527576,0.23878308,0.4478892,0.2845298,0.73714256,-0.76446295
-0.7133788,0.18670836,0.30528212,0.059784375,0.07914456,-0.36992595,0.8527576,0.23878308,0.4478892,0.28408659,0.736033,-0.7657821
-0.71395177,0.17282686,0.31950617,0.068500265,0.08016919,-0.37096512,0.8659339,0.2400295,0.39077234,0.2838038,0.734944,-0.7672348
-0.6946987,0.17202783,0.3188529,0.07577489,0.081160046,-0.36699635,0.8659339,0.2400295,0.39077234,0.28370124,0.7338506,-0.7684748
-0.6947909,0.15089011,0.3405577,0.0821259,0.07728679,-0.36603203,0.8463187,0.23531967,0.42067182,0.28372243,0.7327137,-0.7695501
-0.7028992,0.15041113,0.3399309,0.07588319,0.08367364,-0.3832625,0.8463187,0.23531967,0.42067182,0.28352043,0.7316884,-0.77118826
-0.7044592,0.17060548,0.39179802,0.05518016,0.07957606,-0.40980273,0.86708724,0.24821277,0.3699665,0.28272417,0.73068476,-0.77379394
-0.6980765,0.16823268,0.39253712,0.040610485,0.05316414,-0.41143712,0.86708724,0.24821277,0.3699665,0.28162506,0.72936416,-0.7761929
-0.7114522,0.15632986,0.35303319,0.034282453,0.037891522,-0.4149215,0.8545581,0.2435197,0.40580118,0.28036338,0.72787327,-0.77846134
-0.7090261,0.17505518,0.34442878,0.020258732,0.039843827,-0.43273538,0.8545581,0.2435197,0.40580118,0.2787215,0.72643906,-0.7814084
-0.6847135,0.19106166,0.35131586,0.008132234,0.03430088,-0.43425894,0.85512984,0.2521073,0.4008683,0.2768187,0.72494465,-0.7844379
-0.67805594,0.16691028,0.3297795,0.012234114,0.010227218,-0.4145938,0.85512984,0.2521073,0.4008683,0.275124,0.7231123,-0.7869805
-0.6916208,0.1599143,0.28763366,0.024076361,0.0030802041,-0.40703905,0.8446549,0.25796524,0.394853,0.27370223,0.72118264,-0.7894498
-0.69559807,0.16885108,0.28014874,0.038391143,0.012337223,-0.40450054,0.8446549,0.25796524,0.394853,0.27260068,0.7193473,-0.7917259
-0.7149675,0.178491,0.29548872,0.05032956,0.02757606,-0.40431806,0.860368,0.26591063,0.3753307,0.2717368,0.7176971,-0.79413426
-0.71815026,0.18808907,0.29213,0.05759461,0.050946385,-0.3963127,0.860368,0.26591063,0.3753307,0.27109265,0.7162963,-0.7961266
-0.6929218,0.19576637,0.31543124,0.058504388,0.067612454,-0.38264847,0.8400556,0.24970601,0.4100461,0.27055293,0.7150642,-0.797066
-0.6778288,0.19216791,0.29962718,0.05977906,0.086018264,-0.36418268,0.8400556,0.24970601,0.4100461,0.27017093,0.71400815,-0.79819334
-0.68011016,0.18831679,0.2843666,0.059959695,0.10514603,-0.35216397,0.8488667,0.26649362,0.39024043,0.26986337,0.7131624,-0.79938865
-0.6873784,0.18394071,0.28223336,0.06056054,0.11626083,-0.33954367,0.8488667,0.26649362,0.39024043,0.2696642,0.7124113,-0.7998489
-0.6900013,0.16959189,0.27442324,0.062302228,0.12362286,-0.3318466,0.8410722,0.26397398,0.40006113,0.2695392,0.71173847,-0.80010426
-0.68802667,0.15673253,0.26932776,0.06588582,0.13099615,-0.3288555,0.8410722,0.26397398,0.40006113,0.26951906,0.71113884,-0.80027235
-0.68614995,0.15801576,0.25967455,0.06866707,0.13092905,-0.32923165,0.84249616,0.2599879,0.35761368,0.26953998,0.7105474,-0.80046403
-0.6773563,0.15714557,0.24490106,0.070040464,0.12903307,-0.326596,0.84249616,0.2599879,0.35761368,0.2696157,0.7099199,-0.8005799
-0.6623594,0.15356788,0.23311508,0.07150109,0.12832974,-0.32315046,0.848295,0.25790608,0.39517343,0.26972994,0.70928353,-0.80035317
-0.6505542,0.14891817,0.20971596,0.079554856,0.123156086,-0.32074952,0.848295,0.25790608,0.39517343,0.2700284,0.70857465,-0.80033565
-0.63655055,0.14393586,0.20947695,0.09626281,0.12391526,-0.3160604,0.8450426,0.25769496,0.3842703,0.27067545,0.7078738,-0.80023575
-0.64342266,0.14522488,0.19712329,0.117469236,0.12589255,-0.30858752,0.8450426,0.25769496,0.3842703,0.27180463,0.70717156,-0.7999145
-0.65459776,0.14554623,0.21342397,0.13807078,0.1326918,-0.29714587,0.8415952,0.25762016,0.3786577,0.27340224,0.70653474,-0.79946864
-0.6727207,0.15150946,0.24666715,0.15326726,0.13812602,-0.28494978,0.8415952,0.25762016,0.3786577,0.27539325,0.7059244,-0.7985445
-0.6751942,0.14779608,0.3053565,0.16184762,0.14375713,-0.27431768,0.8560977,0.25143272,0.37441278,0.27760768,0.7053635,-0.7972424
-0.6671055,0.14620166,0.33103204,0.16762799,0.13381784,-0.26546392,0.8560977,0.25143272,0.37441278,0.27999905,0.7046547,-0.7958516
-0.6576258,0.15192445,0.32365465,0.16963458,0.11962324,-0.25893244,0.8397459,0.23794207,0.40427732,0.2824484,0.7037662,-0.79382384
-0.65169895,0.15539707,0.29287982,0.16829288,0.11602328,-0.25548884,0.8397459,0.23794207,0.40427732,0.28490132,0.7028184,-0.7922313
-0.64761966,0.16687721,0.27521527,0.16334802,0.12597826,-0.25159428,0.83011186,0.24021825,0.37168753,0.28726453,0.70198834,-0.7910571
-0.6405973,0.16835189,0.27533126,0.15977338,0.14922221,-0.24685577,0.83011186,0.24021825,0.37168753,0.28961393,0.70140296,-0.78918815
-0.64683163,0.17854333,0.2848978,0.15244493,0.17034097,-0.24497616,0.84664774,0.22910097,0.4045608,0.29182446,0.70106405,-0.7867931
-0.6362367,0.18270391,0.2974136,0.14097267,0.19566555,-0.2407848,0.84664774,0.22910097,0.4045608,0.29385954,0.7010018,-0.7846744
-0.63374645,0.18602158,0.31027138,0.12565407,0.21207154,-0.23835552,0.85546875,0.23689556,0.37381518,0.29559326,0.7011372,-0.78313136
-0.6316923,0.191163,0.30355442,0.10517083,0.22372659,-0.2406832,0.85546875,0.23689556,0.37381518,0.29693145,0.7013981,-0.78094494
-0.6329447,0.19920132,0.28468788,0.083237596,0.24529986,-0.24995862,0.850801,0.2316798,0.3944198,0.29777247,0.7019449,-0.7789725
-0.69521403,0.23158152,0.29993224,0.059696507,0.2572272,-0.26033434,0.850801,0.2316798,0.3944198,0.2981072,0.70264864,-0.77718735
-0.69739866,0.22548163,0.3211981,0.048709784,0.23154363,-0.21353817,0.8688179,0.22252598,0.39037597,0.29847366,0.7029322,-0.7739738
-0.62606376,0.1689063,0.24328768,0.046059377,0.21912403,-0.19105393,0.8688179,0.22252598,0.39037597,0.29893145,0.70300066,-0.7705779
-0.60237986,0.17734526,0.16327119,0.035409037,0.23474881,-0.19787872,0.8489518,0.21200174,0.4200393,0.2991292,0.7032771,-0.7668848
-0.6328105,0.16607283,0.15191138,0.01605089,0.2575686,-0.20143029,0.8489518,0.21200174,0.4200393,0.29895005,0.70382404,-0.76365113
-0.63757926,0.15172702,0.17507851,-0.012199312,0.27812755,-0.21320537,0.8476938,0.21639216,0.36175597,0.2981283,0.7046614,-0.7613995
-0.63027316,0.15440403,0.19815111,-0.04646819,0.29224965,-0.22419447,0.8476938,0.21639216,0.36175597,0.29658827,0.705681,-0.7586427
-0.63387305,0.14703643,0.22390413,-0.07914899,0.30096298,-0.23041926,0.8652463,0.21954283,0.38464415,0.29434478,0.70683616,-0.75623536
-0.62395924,0.13836011,0.24084914,-0.10780494,0.30825695,-0.23351702,0.8652463,0.21954283,0.38464415,0.29153627,0.70807844,-0.7536762
-0.6149601,0.12958063,0.25455332,-0.13059923,0.30523592,-0.23758195,0.8502976,0.22004989,0.39394116,0.2882266,0.7093136,-0.7513275
-0.6124525,0.12408781,0.27628183,-0.14874248,0.29486904,-0.24726054,0.8502976,0.22004989,0.39394116,0.28451115,0.7104463,-0.74914694
-0.6139856,0.12630609,0.3020321,-0.16800085,0.27252728,-0.26815116,0.84945524,0.22363055,0.42051578,0.28025067,0.7113826,-0.747499
-0.62542546,0.1359337,0.3049209,-0.18380605,0.23253644,-0.29743728,0.84945524,0.22363055,0.42051578,0.27549523,0.7119099,-0.7466965
-0.6190901,0.16235666,0.29981303,-0.1992687,0.19455177,-0.3214992,0.8755176,0.22281191,0.4068917,0.2702449,0.71205115,-0.74610233
-0.5924394,0.17338362,0.28204,-0.20621458,0.15870845,-0.33394754,0.8755176,0.22281191,0.4068917,0.2647828,0.71178854,-0.74634504
-0.5955546,0.18562105,0.24721336,-0.20929265,0.12406416,-0.3459946,0.85679364,0.22946171,0.4266891,0.25914997,0.7111477,-0.7468405
-0.59875834,0.19769326,0.21836078,-0.20587587,0.1055457,-0.35214582,0.85679364,0.22946171,0.4266891,0.2535631,0.71028733,-0.7476132
-0.6090432,0.2045956,0.20312214,-0.20409715,0.091300644,-0.35650533,0.8582567,0.24941005,0.4116521,0.24795729,0.70927745,-0.7493365
-0.6135375,0.21162249,0.19668937,-0.2047076,0.076031454,-0.3636779,0.8582567,0.24941005,0.4116521,0.2423177,0.7080784,-0.7504189
-0.5986366,0.21816026,0.19108248,-0.20567778,0.067857355,-0.36682087,0.857986,0.2615783,0.43329376,0.23661825,0.7067937,-0.7519541
-0.6014177,0.21324463,0.19991541,-0.20450354,0.062232114,-0.3694562,0.857986,0.2615783,0.43329376,0.23095049,0.70542824,-0.75317264
-0.6082976,0.21202955,0.2077334,-0.20391843,0.04637517,-0.3707215,0.8443258,0.26418394,0.41096413,0.22526708,0.7038789,-0.75433373
-0.597423,0.20185031,0.20312357,-0.20519629,0.03434299,-0.36969474,0.8443258,0.26418394,0.41096413,0.21958587,0.70217127,-0.755558
-0.590533,0.19466773,0.18280923,-0.20888394,0.031902865,-0.37648258,0.8549849,0.26718384,0.422629,0.21377702,0.70044106,-0.7565334
-0.57735896,0.18784104,0.17739046,-0.2138609,0.043001994,-0.37438324,0.8549849,0.26718384,0.422629,0.20790644,0.69882774,-0.75783443
-0.6002015,0.17063329,0.18810391,-0.22068298,0.048238337,-0.37549534,0.8577448,0.2802378,0.3650254,0.20187905,0.6972815,-0.75942326
-0.6102486,0.17594197,0.20684052,-0.23694244,0.051279932,-0.3879341,0.8577448,0.2802378,0.3650254,0.19547819,0.69576037,-0.7610223
-0.5955639,0.17984037,0.2126236,-0.26161733,0.077416085,-0.40401232,0.84482086,0.28480577,0.42238253,0.18848039,0.69455314,-0.7626829
-0.6228573,0.20699814,0.25267422,-0.29394707,0.124121465,-0.44527286,0.84482086,0.28480577,0.42238253,0.1806162,0.6938914,-0.7656479
-0.65034896,0.24396951,0.41035938,-0.31030527,0.10370213,-0.4179065,0.84308875,0.31049255,0.40197313,0.17257261,0.6929776,-0.7685356
-0.6448687,0.15847473,0.41769314,-0.29924983,0.010996684,-0.364847,0.84308875,0.31049255,0.40197313,0.165089,0.6909398,-0.76948476
-0.61267215,0.1628063,0.3152449,-0.28592142,-0.038817883,-0.35460058,0.8492069,0.3111828,0.4343596,0.15792677,0.6883131,-0.7698014
-0.5753887,0.15476304,0.2619481,-0.27967444,-0.029461429,-0.3478296,0.8492069,0.3111828,0.4343596,0.15095,0.68579036,-0.7702682
-0.5534385,0.11313158,0.24716043,-0.28034955,-0.007992476,-0.3338026,0.8329234,0.32811558,0.40172458,0.14402997,0.68353784,-0.7707274
-0.56921124,0.07905381,0.24157369,-0.28194442,0.01230441,-0.33000073,0.8329234,0.32811558,0.40172458,0.13711943,0.6815176,-0.77072453
-0.58791935,0.070005536,0.2420851,-0.28734502,0.03506054,-0.32412085,0.8368925,0.32183656,0.38593388,0.1301242,0.67977643,-0.7700279
-0.57646376,0.05933031,0.25348616,-0.2984828,0.05779071,-0.32760108,0.8368925,0.32183656,0.38593388,0.12289897,0.6782981,-0.7699611
-0.5650039,0.047773987,0.25599432,-0.31195503,0.08059434,-0.32947177,0.83973897,0.3403006,0.42930138,0.11537827,0.67709726,-0.77013326
-0.55473113,0.031701274,0.26776564,-0.32549918,0.09791967,-0.3312036,0.83973897,0.3403006,0.42930138,0.10759134,0.6760905,-0.77016616
-0.5521878,0.015365966,0.2796687,-0.33550614,0.10756363,-0.33509147,0.83615756,0.34631044,0.43450952,0.0995693,0.6751983,-0.77021265
-0.5730228,0.0052202195,0.30559194,-0.34578136,0.117592566,-0.3390733,0.83615756,0.34631044,0.43450952,0.09133283,0.6744107,-0.7704408
-0.59111404,0.00022026896,0.33567822,-0.3606636,0.12036036,-0.34107965,0.82643855,0.36961272,0.42921102,0.08277429,0.6736604,-0.7711756
-0.58612335,-0.012210101,0.33445752,-0.37604028,0.11381531,-0.3403287,0.82643855,0.36961272,0.42921102,0.073934324,0.67282236,-0.77140594
-0.5876637,-0.021833867,0.31340992,-0.3880285,0.11374576,-0.33821437,0.83364165,0.38152856,0.4462031,0.064856194,0.6719938,-0.7716867
-0.5892149,-0.028123364,0.3089962,-0.3938699,0.12209031,-0.33677107,0.83364165,0.38152856,0.4462031,0.05568248,0.6712583,-0.77182424
-0.5980166,-0.037134722,0.33484745,-0.3939082,0.122347444,-0.3333593,0.8349875,0.3895767,0.42010713,0.046516716,0.670539,-0.77172875
-0.6120912,-0.044036955,0.35061908,-0.39187694,0.11661544,-0.3321816,0.8349875,0.3895767,0.42010713,0.037416324,0.6697501,-0.7717204
-0.5882522,-0.048431456,0.38082063,-0.38820633,0.116578214,-0.328924,0.8406509,0.3935784,0.46848756,0.028397724,0.66897535,-0.7714126
-0.57302487,-0.06279065,0.38665044,-0.37983704,0.11835321,-0.32090303,0.8406509,0.3935784,0.46848756,0.01960355,0.66824305,-0.7711148
-0.5725776,-0.07631582,0.40823352,-0.3692961,0.12314287,-0.31469417,0.82749426,0.407814,0.44663644,0.0110397935,0.667596,-0.7707472
-0.59145874,-0.08390248,0.4300778,-0.35950977,0.11698081,-0.3119343,0.82749426,0.407814,0.44663644,0.0027051866,0.6668843,-0.77021
-0.59722257,-0.08691314,0.42398417,-0.35116833,0.10358409,-0.3067977,0.8445922,0.41427618,0.4855187,-0.005435154,0.66604465,-0.76944375
-0.60640657,-0.08522026,0.389192,-0.34662944,0.08858623,-0.3040525,0.8445922,0.41427618,0.4855187,-0.013444617,0.66504216,-0.7686038
-0.61895555,-0.08697873,0.3525473,-0.34593964,0.082063705,-0.30222386,0.83820343,0.42575422,0.47477186,-0.021434411,0.66398287,-0.76772285
-0.62478906,-0.096713886,0.33356154,-0.34901068,0.075512275,-0.29308316,0.83820343,0.42575422,0.47477186,-0.029416665,0.66288793,-0.76654935
-0.6249542,-0.1037914,0.29597533,-0.3636474,0.07556272,-0.28796473,0.83819366,0.43474612,0.48571175,-0.037671804,0.6618298,-0.76526856
-0.624908,-0.1259838,0.29149413,-0.3848938,0.08543983,-0.27783358,0.83819366,0.43474612,0.48571175,-0.0462918,0.6609361,-0.7637465
-0.628028,-0.156578,0.28323424,-0.4027075,0.08191824,-0.27089956,0.83531797,0.44325888,0.47516614,-0.055235147,0.660052,-0.7619896
-0.63381636,-0.17929989,0.28252578,-0.41846842,0.085546106,-0.27304667,0.83531797,0.44325888,0.47516614,-0.06449507,0.65920734,-0.76033163
-0.60741687,-0.19433987,0.282472,-0.43323895,0.093732946,-0.2748021,0.8380487,0.44982266,0.5074725,-0.07407512,0.6584662,-0.75871515
-0.6022537,-0.21472007,0.30715227,-0.4435627,0.09752098,-0.27891925,0.8380487,0.44982266,0.5074725,-0.08387411,0.65775424,-0.7572255
-0.6005999,-0.22378513,0.32633102,-0.4509197,0.09967262,-0.29270354,0.8379036,0.46489924,0.5292333,-0.09390277,0.6570098,-0.7562008
-0.5856928,-0.23015586,0.3264861,-0.4506418,0.088313416,-0.30423182,0.8379036,0.46489924,0.5292333,-0.10395977,0.6560748,-0.75522995
-0.5709418,-0.22346905,0.2790774,-0.44239742,0.07458854,-0.31409383,0.8266547,0.47129664,0.54438114,-0.11389449,0.65494084,-0.7543757
-0.56837875,-0.2197865,0.28031135,-0.42564097,0.07122417,-0.32023776,0.8266547,0.47129664,0.54438114,-0.12350917,0.6537335,-0.7536528
-0.56104696,-0.22751898,0.27529037,-0.4008624,0.073472306,-0.31768683,0.8263842,0.48346603,0.5660228,-0.13262635,0.65257883,-0.75294185
-0.57149935,-0.24102211,0.2726859,-0.37221563,0.07321663,-0.3186037,0.8263842,0.48346603,0.5660228,-0.1411638,0.6514162,-0.7521591
-0.5686175,-0.23244274,0.24991524,-0.34828728,0.07714034,-0.3198336,0.8281176,0.49124387,0.5293462,-0.14924124,0.6502979,-0.7512567
-0.5584969,-0.24324274,0.24103832,-0.32802382,0.08051352,-0.31511104,0.8281176,0.49124387,0.5293462,-0.15688452,0.64925086,-0.7504096
-0.57959425,-0.25749716,0.21097887,-0.31242183,0.07998797,-0.3182215,0.82413876,0.5065148,0.5560769,-0.16423872,0.6481875,-0.7497761
-0.5748588,-0.26538965,0.17835975,-0.29758918,0.08644144,-0.3177196,0.82413876,0.5065148,0.5560769,-0.17129189,0.64719784,-0.74900055
-0.58713245,-0.27033547,0.14883327,-0.28240418,0.09380348,-0.32595682,0.8275082,0.51862496,0.5780389,-0.17809987,0.64623874,-0.7486005
-0.58878005,-0.2706205,0.12240052,-0.27104408,0.10269169,-0.3291259,0.8275082,0.51862496,0.5780389,-0.18469816,0.6453503,-0.74816203
-0.5909033,-0.27507794,0.10502136,-0.26509857,0.11473905,-0.33554593,0.8277607,0.52443933,0.5782771,-0.19123241,0.644551,-0.7479181
-0.57915026,-0.27732736,0.10125911,-0.25762993,0.12694608,-0.33330327,0.8277607,0.52443933,0.5782771,-0.19761473,0.64389706,-0.7477145
-0.5992867,-0.28825447,0.08965993,-0.25020656,0.13515398,-0.3327899,0.8234805,0.5189533,0.58829904,-0.20386454,0.6433401,-0.7473581
-0.6008885,-0.28610563,0.09117806,-0.24464831,0.1386261,-0.33434147,0.8234805,0.5189533,0.58829904,-0.21000773,0.6428052,-0.74724436
-0.60513294,-0.28394827,0.070632935,-0.24459279,0.14573345,-0.33562842,0.8153485,0.53164536,0.6251728,-0.21617383,0.64234346,-0.74738145
-0.6159812,-0.2898367,0.042447567,-0.24562618,0.1554112,-0.33032814,0.8153485,0.53164536,0.6251728,-0.22234103,0.64202094,-0.74728847
-0.60772806,-0.28457105,0.05333531,-0.24543172,0.1709194,-0.3249186,0.8147085,0.52610016,0.63551515,-0.22850913,0.64191306,-0.74704576
-0.5951766,-0.3130583,0.08446407,-0.24046516,0.1708141,-0.30656937,0.8147085,0.52610016,0.63551515,-0.23448545,0.64195323,-0.74654627
-0.601493,-0.3336266,0.1089977,-0.23602924,0.16719799,-0.30814674,0.81871796,0.54375553,0.64713484,-0.2403827,0.6419523,-0.74620724
-0.60649264,-0.34984335,0.15297627,-0.226904,0.15959743,-0.3066369,0.81871796,0.54375553,0.64713484,-0.24607122,0.64187956,-0.74562645
-0.58872473,-0.35980257,0.23823297,-0.21455836,0.14498454,-0.30648625,0.8295039,0.5496615,0.6589188,-0.2514959,0.6416656,-0.7449727
-0.5999086,-0.37985966,0.2785226,-0.19585255,0.12032217,-0.31537664,0.8295039,0.5496615,0.6589188,-0.2565409,0.64111304,-0.7442777
-0.5887931,-0.3714271,0.2837062,-0.17177188,0.08692585,-0.31722218,0.82726693,0.5637195,0.6380309,-0.26106465,0.64020765,-0.7434008
-0.5764804,-0.35602272,0.23088443,-0.1418168,0.07056785,-0.31748712,0.82726693,0.5637195,0.6380309,-0.2649582,0.6391274,-0.74235725
-0.59271157,-0.33250538,0.16423488,-0.11046384,0.056324273,-0.3163432,0.83295,0.5497375,0.66453147,-0.2682021,0.6379196,-0.74105287
-0.60759985,-0.30884004,0.08996284,-0.08049919,0.050188676,-0.3201836,0.83295,0.5497375,0.66453147,-0.27085042,0.6366111,-0.7398956
-0.5923004,-0.28019452,0.032980204,-0.050691985,0.072645046,-0.31583172,0.823627,0.56377876,0.63771045,-0.2729274,0.63558316,-0.7388668
-0.60207474,-0.27318248,-0.010107279,-0.014546312,0.09851966,-0.30662796,0.823627,0.56377876,0.63771045,-0.27428165,0.63489926,-0.7378006
-0.6138938,-0.26059836,-0.020764947,0.021358296,0.13995832,-0.30077642,0.8120085,0.5524615,0.64155906,-0.2749676,0.6347027,-0.73684144
-0.62627244,-0.24975151,-0.006695986,0.060095865,0.18686011,-0.2922959,0.8120085,0.5524615,0.64155906,-0.27491945,0.6350578,-0.7361753
-0.64415985,-0.23705125,0.04061854,0.09626004,0.23553786,-0.2827931,0.8224653,0.56458735,0.66945624,-0.27419367,0.6360103,-0.7359326
-0.6437425,-0.22997117,0.083241105,0.13263658,0.26789925,-0.2696448,0.8224653,0.56458735,0.66945624,-0.2727345,0.6374042,-0.73543215
-0.65623677,-0.2292158,0.1137203,0.16217485,0.2903571,-0.2600455,0.8261833,0.55249393,0.65342724,-0.270681,0.63912535,-0.73477674
-0.63386196,-0.23574671,0.1467737,0.18643594,0.30274975,-0.25039747,0.8261833,0.55249393,0.65342724,-0.26811853,0.6410512,-0.7341361
-0.6080711,-0.24842781,0.13778985,0.21297573,0.29500228,-0.23799437,0.833657,0.5522404,0.6487777,-0.26495498,0.64301896,-0.7331922
-0.5943179,-0.2710673,0.13314831,0.23787957,0.27657834,-0.22935367,0.833657,0.5522404,0.6487777,-0.2612208,0.6448597,-0.7318835
-0.5959809,-0.28899923,0.104322314,0.2644036,0.24448779,-0.2222534,0.8228222,0.53139186,0.6205233,-0.25686577,0.64643574,-0.72990966
-0.5948619,-0.30062258,0.07973647,0.27944756,0.2261334,-0.21859354,0.8228222,0.53139186,0.6205233,-0.25216106,0.6478369,-0.7279606
-0.5811621,-0.31428644,0.07944822,0.28479728,0.21673337,-0.21015221,0.8410331,0.522104,0.6111893,-0.24728933,0.64921623,-0.72564816
-0.5768246,-0.3455487,0.06806016,0.28612047,0.19208911,-0.20121309,0.8410331,0.522104,0.6111893,-0.24230611,0.65039456,-0.7230489
-0.58283436,-0.36467287,0.056039453,0.28093946,0.17624293,-0.20329717,0.8393582,0.5202746,0.6533985,-0.23740685,0.6513909,-0.72065926
-0.5958042,-0.3738842,0.05804777,0.2668274,0.16462219,-0.21171653,0.8393582,0.5202746,0.6533985,-0.23280704,0.6521691,-0.71806574
-0.59116036,-0.38005716,0.07375157,0.24420972,0.15047851,-0.2192031,0.8485069,0.52185047,0.6065398,-0.22866893,0.652737,-0.7155607
-0.5910617,-0.3930281,0.083912015,0.21203679,0.12123024,-0.22976577,0.8485069,0.52185047,0.6065398,-0.22517514,0.6528878,-0.7130358
-0.61493754,-0.39421058,0.08298516,0.18573381,0.10040143,-0.24389432,0.8330643,0.5017357,0.6044204,-0.22224033,0.6527047,-0.71049786
-0.6331367,-0.3885307,0.09243071,0.16584119,0.081784524,-0.25611687,0.8330643,0.5017357,0.6044204,-0.21973252,0.652208,-0.7082658
-0.65009844,-0.37316823,0.09910965,0.15312321,0.067549765,-0.26179197,0.84839106,0.50995135,0.5954808,-0.21748605,0.65152216,-0.70620584
-0.6590561,-0.35595822,0.100912094,0.14690156,0.058496498,-0.2630114,0.84839106,0.50995135,0.5954808,-0.21535528,0.6507128,-0.70396566
-0.6712516,-0.33427453,0.09773493,0.14769666,0.05436659,-0.25679743,0.8352915,0.49666962,0.6362483,-0.2131758,0.64991885,-0.70166683
-0.6805995,-0.31792963,0.09465706,0.15557319,0.05587758,-0.24448986,0.8352915,0.49666962,0.6362483,-0.21078235,0.64922106,-0.6990104
-0.6821903,-0.30218968,0.10146999,0.1645661,0.05813404,-0.23031035,0.8302082,0.49226356,0.5719949,-0.20814708,0.648667,-0.69585776
-0.6817476,-0.29382446,0.092160106,0.1757007,0.05292268,-0.2228983,0.8302082,0.49226356,0.5719949,-0.2052472,0.64809585,-0.69271445
-0.6853304,-0.27758172,0.08860135,0.18851188,0.048603237,-0.21546969,0.84718895,0.4868267,0.5998161,-0.2020531,0.6475443,-0.6895025
-0.7096891,-0.26331764,0.07874298,0.20660748,0.052733615,-0.20239016,0.84718895,0.4868267,0.5998161,-0.1984413,0.6471127,-0.68591404
-0.69227344,-0.26170182,0.057159185,0.23208898,0.07550494,-0.18109222,0.85122645,0.4775053,0.57861596,-0.19425413,0.64709437,-0.68195343
-0.62256753,-0.26293477,0.041416287,0.2638319,0.111306116,-0.16054012,0.85122645,0.4775053,0.57861596,-0.18938515,0.6475867,-0.67783237
-0.59534156,-0.2581194,0.038740277,0.29503232,0.1428476,-0.13868137,0.85903907,0.46204007,0.5469154,-0.18383086,0.6485813,-0.673193
-0.61592865,-0.27226052,0.04273033,0.32365847,0.18749635,-0.12611425,0.85903907,0.46204007,0.5469154,-0.17770213,0.6501149,-0.66878366
-0.611315,-0.27010646,0.08328128,0.3433649,0.22710222,-0.12591426,0.85105205,0.4596567,0.5620264,-0.17122984,0.65207714,-0.664973
-0.5963404,-0.27354667,0.112204194,0.35462737,0.25448588,-0.13321358,0.85105205,0.4596567,0.5620264,-0.16459516,0.65424156,-0.6611016
-0.589223,-0.2725089,0.144279,0.36047795,0.25879014,-0.14457463,0.8473033,0.4388238,0.539705,-0.15789789,0.6563671,-0.6572778
-0.5665698,-0.2753157,0.19131339,0.36427027,0.22719577,-0.15334877,0.8473033,0.4388238,0.539705,-0.15111753,0.65804684,-0.6536474
-0.5659162,-0.28137365,0.15491867,0.370823,0.13441145,-0.15653951,0.85906684,0.4350644,0.5140935,-0.144097,0.6586775,-0.649632
-0.5846325,-0.29533005,0.088941336,0.37543297,0.08340818,-0.16477928,0.85906684,0.4350644,0.5140935,-0.13695657,0.65864503,-0.6453991
-0.59740335,-0.28182575,0.06846738,0.3743468,0.062038645,-0.1838145,0.846751,0.41225246,0.522756,-0.12991121,0.65824294,-0.64136076
-0.59274054,-0.26665235,0.07733238,0.36830214,0.038235843,-0.20449269,0.846751,0.41225246,0.522756,-0.12306312,0.6574041,-0.63779163
-0.58829826,-0.25033018,0.09824288,0.3589333,0.0062275827,-0.2178168,0.86228013,0.41134107,0.49758613,-0.11643982,0.65612364,-0.6345613
-0.58382595,-0.23794615,0.09536135,0.35105017,-0.023873404,-0.22259861,0.86228013,0.41134107,0.49758613,-0.10996473,0.6544379,-0.63110375
-0.58302665,-0.2238397,0.088605285,0.3452602,-0.049473256,-0.2228795,0.8501483,0.39738694,0.5118982,-0.10358885,0.6524625,-0.62766266
-0.5817174,-0.21713868,0.08455157,0.34619084,-0.07050139,-0.21920341,0.8501483,0.39738694,0.5118982,-0.09715667,0.6502323,-0.6239321
-0.5747104,-0.20779848,0.09337163,0.34834635,-0.07987988,-0.21794322,0.8508651,0.39089796,0.48520446,-0.09067944,0.64790154,-0.6202643
-0.5723014,-0.19334811,0.106209874,0.35200226,-0.08435708,-0.21468307,0.8508651,0.39089796,0.48520446,-0.0841136,0.645497,-0.6164143
-0.5725179,-0.17776313,0.12820446,0.35621798,-0.09467694,-0.21081877,0.8429549,0.3764792,0.48396403,-0.07744905,0.64299273,-0.612473
-0.5585779,-0.16259956,0.13475013,0.36011583,-0.1035583,-0.21027863,0.8429549,0.3764792,0.48396403,-0.070702046,0.64034784,-0.60849094
-0.55195576,-0.14714655,0.15319252,0.36372688,-0.12499541,-0.20560606,0.8376205,0.36625767,0.41947246,-0.06385563,0.6374764,-0.6041806
-0.5509345,-0.13453619,0.1616323,0.36980343,-0.15337431,-0.2046481,0.8376205,0.36625767,0.41947246,-0.056866854,0.6342422,-0.5999193
-0.54421043,-0.12785311,0.15982819,0.38273096,-0.17439464,-0.20301722,0.8295164,0.35197407,0.42352438,-0.04961407,0.6307676,-0.59561396
-0.5383483,-0.112914056,0.16422474,0.3985468,-0.1961903,-0.1999408,0.8295164,0.35197407,0.42352438,-0.04202488,0.6270092,-0.5911548
-0.536059,-0.098874286,0.16630578,0.41632837,-0.21012923,-0.19454117,0.82243884,0.34296542,0.40664935,-0.03406769,0.6231047,-0.5867667
-0.5322833,-0.090942845,0.17058122,0.4330523,-0.2169329,-0.18886317,0.82243884,0.34296542,0.40664935,-0.025759473,0.61909246,-0.5820763
-0.53023744,-0.08119324,0.1791116,0.44709322,-0.21542287,-0.18727179,0.8156316,0.32178855,0.36813474,-0.017189473,0.6150869,-0.57717633
-0.5224906,-0.069692776,0.19352782,0.45569828,-0.19987938,-0.19077368,0.8156316,0.32178855,0.36813474,-0.008492634,0.611194,-0.5727079
-0.5155705,-0.056581497,0.21696544,0.4551204,-0.17964372,-0.1956074,0.8267648,0.30349204,0.34192562,0.000133425,0.6075016,-0.56830645
-0.5141623,-0.047993466,0.25514543,0.4513449,-0.16954279,-0.20054272,0.8267648,0.30349204,0.34192562,0.008640379,0.6038584,-0.5642762
-0.51368415,-0.042540237,0.3071518,0.4460177,-0.1656994,-0.20879298,0.8341228,0.29133943,0.3262192,0.016979143,0.6002214,-0.5605905
-0.50249803,-0.044051617,0.34807277,0.44024757,-0.17024022,-0.21979736,0.8341228,0.29133943,0.3262192,0.025142178,0.5964478,-0.5571153
-0.43069765,-0.014433622,0.40006292,0.43156484,-0.13763934,-0.23036449,0.8202199,0.27913767,0.29270935,0.033047736,0.5930171,-0.55407834
-0.27622563,0.056932155,0.4160167,0.3977415,-0.09611496,-0.21516746,0.8202199,0.27913767,0.29270935,0.04031886,0.59007746,-0.5507767
-0.48445722,-0.0021836609,0.3976072,0.3444032,0.028031066,-0.21856934,0.82271624,0.26190332,0.30289555,0.046443045,0.5885816,-0.547812
-0.6367504,-0.025094926,0.55574155,0.30633244,0.13430077,-0.28474563,0.82271624,0.26190332,0.30289555,0.05146317,0.5881267,-0.54673266
-0.5153896,0.040668868,0.73682404,0.24975969,0.18999574,-0.3685288,0.80802965,0.25923288,0.3014928,0.05495193,0.5881245,-0.5478728
-0.5256059,0.0916555,0.76877165,0.17715877,0.23841146,-0.42222112,0.80802965,0.25923288,0.3014928,0.05673427,0.5885413,-0.55026937
-0.56413174,0.11486554,0.80194926,0.120517306,0.26862955,-0.45351774,0.83136284,0.2518493,0.25556242,0.057233907,0.5892519,-0.5531528
-0.5869602,0.11372612,0.81115127,0.086259484,0.2195761,-0.46443868,0.83136284,0.2518493,0.25556242,0.05702015,0.58934486,-0.55650735
-0.5569283,0.08950732,0.7467923,0.080270596,0.13409701,-0.46024632,0.8233564,0.26744854,0.2925532,0.056741305,0.5884602,-0.5599108
-0.50888246,0.059086442,0.6392946,0.08522652,0.058415674,-0.44452417,0.8233564,0.26744854,0.2925532,0.056664705,0.5867064,-0.56245136
-0.47725222,0.047112998,0.5154952,0.074076176,0.0035734326,-0.43777388,0.8195896,0.26460055,0.29211175,0.056423284,0.5843383,-0.56463456
-0.4847891,0.03497968,0.41449046,0.048073195,-0.031194314,-0.43465096,0.8195896,0.26460055,0.29211175,0.055692554,0.58155406,-0.56674623
-0.49155512,0.012876749,0.34812927,0.024995927,-0.045162126,-0.4242176,0.8066267,0.27870095,0.2649703,0.054559328,0.5786461,-0.5687783
-0.47434917,-0.0026502237,0.3160571,0.010691356,-0.047400475,-0.41287595,0.8066267,0.27870095,0.2649703,0.0531933,0.57572293,-0.5703292
-0.47070375,-0.0012106448,0.2740339,0.009091161,-0.04036416,-0.40696806,0.809957,0.2668767,0.25952184,0.05182562,0.57290757,-0.5713918
-0.4642178,0.0029871762,0.24652135,0.016570251,-0.027032569,-0.40404576,0.809957,0.2668767,0.25952184,0.050613277,0.570243,-0.57276607
-0.45636773,0.0037371963,0.23748481,0.03242693,-0.0070623606,-0.40661073,0.80005383,0.28132224,0.24857378,0.049703233,0.5678204,-0.57443666
-0.45246315,0.008864053,0.26437068,0.05121636,-0.0008430183,-0.41091007,0.80005383,0.28132224,0.24857378,0.04914677,0.56544304,-0.5760212
-0.46522722,0.011392973,0.27726614,0.06915133,0.004513338,-0.40801072,0.79219246,0.28184497,0.26380384,0.048963524,0.5631499,-0.57757926
-0.47273743,0.0058649406,0.28973675,0.08731033,0.017876253,-0.39575633,0.79219246,0.28184497,0.26380384,0.04918629,0.56103224,-0.57884765
-0.478742,-0.0032136217,0.3208393,0.10387488,0.025744244,-0.37945166,0.7817161,0.28770402,0.25778854,0.049808383,0.55906546,-0.5798929
-0.4978656,-0.0064839944,0.350101,0.113884374,0.017726392,-0.35897285,0.7817161,0.28770402,0.25778854,0.050714612,0.55704427,-0.5803025
-0.498924,-0.018479489,0.34331012,0.12101816,0.0006082356,-0.34418377,0.78511477,0.27283743,0.24693084,0.051835313,0.55487263,-0.57999253
-0.49759948,-0.037736326,0.32876205,0.13073297,0.022551298,-0.325939,0.78511477,0.27283743,0.24693084,0.053209834,0.5529945,-0.57964635
-0.49794567,-0.04572159,0.33173943,0.13320571,0.025770694,-0.31368494,0.77514327,0.29032528,0.24139416,0.05468358,0.5512022,-0.57947135
-0.4927338,-0.065824,0.30342245,0.14329393,0.074063964,-0.30064934,0.77514327,0.29032528,0.24139416,0.056389518,0.5499925,-0.57865214
-0.52105963,-0.05958961,0.35194612,0.14433074,0.0956539,-0.29310098,0.77445436,0.26983863,0.23526597,0.05814234,0.54906636,-0.57736754
-0.49777484,-0.06494215,0.34403622,0.13739781,0.11276863,-0.2926542,0.77445436,0.26983863,0.23526597,0.05974728,0.5483291,-0.5764477
-0.49195945,-0.07070559,0.35554743,0.12950021,0.14969192,-0.29030228,0.77880144,0.27228236,0.21983254,0.06119377,0.54804564,-0.5755999
-0.49405524,-0.06698097,0.37788522,0.107921444,0.14560315,-0.2928421,0.77880144,0.27228236,0.21983254,0.0621982,0.54769206,-0.57475376
-0.47869465,-0.08147231,0.34535003,0.09174284,0.18219535,-0.29566658,0.7928493,0.2694064,0.23158157,0.062858745,0.5477765,-0.5740602
-0.4986502,-0.08495639,0.3817699,0.07647339,0.21613435,-0.29887196,0.7928493,0.2694064,0.23158157,0.06318818,0.548238,-0.5734956
-0.498505,-0.085203364,0.40765202,0.054363996,0.21511216,-0.3048038,0.7860143,0.2752052,0.22588682,0.06305504,0.548689,-0.57322717
-0.5034219,-0.09134391,0.39956117,0.038142208,0.24311835,-0.30881968,0.7860143,0.2752052,0.22588682,0.062571526,0.5494447,-0.57294893
-0.50787616,-0.0922461,0.41234553,0.022374671,0.26286373,-0.30988687,0.7853755,0.26965994,0.23622906,0.061764196,0.5504444,-0.5726423
-0.502208,-0.086559474,0.43244386,0.008537121,0.28115785,-0.31207156,0.7853755,0.26965994,0.23622906,0.060664155,0.5516404,-0.5725186
-0.51844275,-0.07787502,0.46339417,-0.0050091594,0.29119757,-0.30793115,0.78153193,0.27884617,0.25213897,0.05930727,0.55298054,-0.5725088
-0.5253202,-0.06945221,0.4654882,-0.018143095,0.2906103,-0.30599168,0.78153193,0.27884617,0.25213897,0.057696134,0.55430293,-0.5722673
-0.52864015,-0.06305699,0.46094036,-0.027395569,0.29445958,-0.30180636,0.801157,0.2745641,0.21129751,0.05591689,0.555695,-0.5717697
-0.5368608,-0.05292578,0.46334016,-0.033961475,0.28860903,-0.2961064,0.801157,0.2745641,0.21129751,0.054030888,0.5570197,-0.57129955
-0.5428437,-0.052137136,0.4705286,-0.034719348,0.28218397,-0.2875437,0.781281,0.27303177,0.25190067,0.052167766,0.5583064,-0.57058144
-0.5407393,-0.05536653,0.47294354,-0.028765775,0.27744427,-0.28271094,0.781281,0.27303177,0.25190067,0.050444387,0.55953646,-0.5697801
-0.5311618,-0.057657033,0.46369445,-0.018605642,0.2745888,-0.27487978,0.77808595,0.27877134,0.24652839,0.04895728,0.5607705,-0.568882
-0.5191747,-0.0607958,0.44398916,-0.008047432,0.27055097,-0.26790658,0.77808595,0.27877134,0.24652839,0.047711328,0.56196135,-0.5677235
-0.5117948,-0.05950764,0.4227401,0.002248019,0.27111912,-0.26248083,0.78709924,0.2864308,0.21049249,0.046693295,0.56319064,-0.5665648
-0.51388264,-0.061940253,0.40011084,0.011533055,0.2732213,-0.25642163,0.78709924,0.2864308,0.21049249,0.04588552,0.5644462,-0.5651462
-0.51679766,-0.063103005,0.384295,0.020617452,0.2757163,-0.25042135,0.81339335,0.27594453,0.27607465,0.045284137,0.565763,-0.563524
-0.5183768,-0.06739658,0.37241292,0.027391016,0.2722383,-0.24614719,0.81339335,0.27594453,0.27607465,0.044837773,0.56703675,-0.5618639
-0.52629066,-0.067466244,0.36056197,0.03180247,0.27232206,-0.24882933,0.8178673,0.28129545,0.26076233,0.044468522,0.5683208,-0.5603852
-0.52948976,-0.06559853,0.35640645,0.034626704,0.26869518,-0.25805664,0.8178673,0.28129545,0.26076233,0.04411915,0.5695213,-0.55899644
-0.5339738,-0.064352214,0.3593377,0.035509035,0.2625968,-0.26615438,0.8144978,0.26918527,0.23880029,0.043756813,0.5706417,-0.55749035
-0.5322689,-0.059592605,0.36349356,0.034555644,0.24970552,-0.277118,0.8144978,0.26918527,0.23880029,0.043333918,0.5715674,-0.5565047
-0.5194372,-0.058211654,0.35902286,0.035420526,0.24132815,-0.28686345,0.8131423,0.27012902,0.27583623,0.042889953,0.5723839,-0.5557778
-0.512918,-0.055238873,0.3494116,0.035931163,0.23567794,-0.2955134,0.8131423,0.27012902,0.27583623,0.04242204,0.57309437,-0.55519176
-0.5197182,-0.049342737,0.35405958,0.038453482,0.22979605,-0.30290094,0.7985226,0.26441738,0.26902223,0.04197538,0.57372993,-0.5546167
-0.5221101,-0.04171221,0.35889018,0.04055623,0.2219986,-0.30480793,0.7985226,0.26441738,0.26902223,0.04156576,0.5742543,-0.55421686
-0.5228245,-0.036445916,0.3646338,0.039649855,0.21463609,-0.30456716,0.8204138,0.27900255,0.28741908,0.04114102,0.5747112,-0.5541756
-0.52671844,-0.04232344,0.3589548,0.038181357,0.20371181,-0.2986962,0.8204138,0.27900255,0.28741908,0.040718645,0.57503873,-0.55358887
-0.53146493,-0.046779454,0.36368763,0.0362152,0.19827661,-0.29642805,0.80885386,0.27363598,0.29679823,0.0402693,0.5753248,-0.5529132
-0.5276638,-0.04929179,0.37596357,0.030770138,0.18646142,-0.2970548,0.80885386,0.27363598,0.29679823,0.03971407,0.57545507,-0.5522466
-0.51387537,-0.057459503,0.37418115,0.026311874,0.17739981,-0.29893884,0.8112358,0.2779672,0.23883724,0.039065823,0.5754899,-0.55158377
-0.50561,-0.06049414,0.35833037,0.024185937,0.17070292,-0.3010296,0.8112358,0.2779672,0.23883724,0.038369223,0.5754248,-0.5509722
-0.5043654,-0.06443119,0.35261333,0.0197815,0.1680419,-0.3029885,0.805465,0.27950957,0.29671597,0.037576824,0.5753401,-0.5505638
-0.5109387,-0.059425354,0.34099936,0.017291944,0.16214482,-0.301371,0.805465,0.27950957,0.29671597,0.03674519,0.5751746,-0.54993916
-0.51480854,-0.055753693,0.3215487,0.016598333,0.16767308,-0.3004742,0.8159301,0.2826435,0.31367123,0.03590034,0.57509375,-0.54946566
-0.511255,-0.052812472,0.31874824,0.014773246,0.17714953,-0.29832453,0.8159301,0.2826435,0.31367123,0.035024807,0.575114,-0.5488069
-0.505206,-0.050665468,0.30953348,0.012139436,0.18319795,-0.2966656,0.8125608,0.27053446,0.29170918,0.03410189,0.57522416,-0.54781127
-0.50440836,-0.054551885,0.3053273,0.0108607225,0.18929338,-0.29369652,0.8125608,0.27053446,0.29170918,0.033162788,0.57540154,-0.54707456
-0.50638133,-0.059129894,0.30659664,0.010524981,0.19721182,-0.29274112,0.81236696,0.27066845,0.29699945,0.032217428,0.5756905,-0.5462785
-0.5064403,-0.056105956,0.31100821,0.007688619,0.20354529,-0.29892135,0.81236696,0.27066845,0.29699945,0.03118582,0.57602024,-0.54570127
-0.50453377,-0.052478284,0.31717634,0.005659908,0.2065237,-0.30467162,0.80573547,0.2673402,0.27507436,0.030087724,0.5763825,-0.5451257
-0.5079001,-0.041645005,0.32555294,0.004725024,0.20606574,-0.30963972,0.80573547,0.2673402,0.27507436,0.02894935,0.57670987,-0.54480696
-0.5102304,-0.0359433,0.33346725,0.00809266,0.20617889,-0.31212187,0.8163862,0.27933198,0.2976792,0.027866602,0.57704854,-0.5447953
-0.51135457,-0.031264156,0.35125172,0.015192602,0.19953734,-0.30948782,0.8163862,0.27933198,0.2976792,0.026940629,0.57730067,-0.54445696
-0.51430774,-0.027566716,0.35104215,0.02060575,0.19425544,-0.30926108,0.8057258,0.2763321,0.28601432,0.026126802,0.57750714,-0.5440428
-0.5087081,-0.022191375,0.3489064,0.024051256,0.18771774,-0.30739167,0.8057258,0.2763321,0.28601432,0.025392339,0.57762825,-0.5436244
-0.4949691,-0.028794527,0.32076943,0.029950358,0.17560034,-0.3048076,0.8208685,0.27569103,0.27142715,0.024793833,0.57763106,-0.5430534
-0.49598774,-0.03228298,0.30646324,0.03546244,0.17654954,-0.3047923,0.8208685,0.27569103,0.27142715,0.02430366,0.5776303,-0.5425441
-0.4983304,-0.0330756,0.29317558,0.042889617,0.18015194,-0.30304742,0.8160082,0.2706093,0.29732192,0.0239688,0.5776923,-0.54193807
-0.4982738,-0.03881143,0.2847805,0.051419765,0.18212433,-0.2989828,0.8160082,0.2706093,0.29732192,0.023819178,0.5777755,-0.5413077
-0.5018416,-0.042799085,0.28643262,0.05396889,0.19439062,-0.29839045,0.81685054,0.2670275,0.27074742,0.023718715,0.5780185,-0.5405662
-0.49809614,-0.05172056,0.29594374,0.054680586,0.20131135,-0.29324397,0.81685054,0.2670275,0.27074742,0.023649558,0.57834446,-0.53985333
-0.49920928,-0.0643215,0.30857122,0.05671504,0.20574982,-0.28897968,0.80540645,0.27356005,0.2911855,0.023638457,0.5787524,-0.5392399
-0.5029056,-0.07885575,0.31797743,0.061612234,0.20400372,-0.2880351,0.80540645,0.27356005,0.2911855,0.023729116,0.57912654,-0.53841233
-0.51145405,-0.083777264,0.32552564,0.065260716,0.20924741,-0.28999943,0.8164531,0.27628964,0.29226983,0.023882464,0.57957155,-0.5377815
-0.5138532,-0.084291115,0.34917104,0.06271712,0.2099003,-0.2921491,0.8164531,0.27628964,0.29226983,0.023974568,0.58000124,-0.537066
-0.5190316,-0.08678141,0.36402082,0.05790014,0.20559065,-0.29615033,0.80892074,0.27059364,0.29138875,0.023956954,0.5803822,-0.53635454
-0.52358586,-0.08593659,0.37400496,0.05239784,0.19300304,-0.3030025,0.80892074,0.27059364,0.29138875,0.023804635,0.5805798,-0.5358474
-0.5196322,-0.08536987,0.37026322,0.05054126,0.18795332,-0.30870757,0.82022834,0.27014577,0.2817694,0.023594111,0.5807148,-0.5354245
-0.5123181,-0.07706198,0.3596723,0.04607427,0.18742728,-0.31164512,0.82022834,0.27014577,0.2817694,0.023280725,0.5808197,-0.535105
-0.5124231,-0.07371423,0.35150683,0.044017904,0.18671367,-0.3075388,0.80782604,0.2683599,0.31772316,0.022945702,0.58094466,-0.53471947
-0.51741326,-0.07628499,0.31679785,0.043955352,0.18219241,-0.3070493,0.80782604,0.2683599,0.31772316,0.022612944,0.5810033,-0.53427815
-0.5208013,-0.07214989,0.30951273,0.043909393,0.18869682,-0.30923718,0.8021542,0.27335006,0.2802825,0.022267252,0.58114624,-0.5339415
-0.52103245,-0.06878577,0.29906,0.039131984,0.19418736,-0.31276903,0.8021542,0.27335006,0.2802825,0.02180712,0.58132684,-0.5336671
-0.52373505,-0.06621705,0.29888666,0.032770548,0.19950502,-0.32070845,0.7904589,0.2740671,0.3004825,0.021183416,0.5815593,-0.5336473
-0.5244416,-0.057216823,0.3061788,0.025546987,0.20408504,-0.32528454,0.7904589,0.2740671,0.3004825,0.020392388,0.5818151,-0.53369355
-0.5199244,-0.060381144,0.30800283,0.023925938,0.20636353,-0.32661957,0.8126193,0.27648398,0.29723978,0.019562915,0.5821084,-0.5338166
-0.5215306,-0.06005402,0.31874013,0.025215928,0.21015304,-0.32595935,0.8126193,0.27648398,0.29723978,0.018758997,0.58243275,-0.53389645
-0.5164482,-0.064575434,0.3223791,0.032530762,0.20264113,-0.32454216,0.8041191,0.27146146,0.3228122,0.018112406,0.5826887,-0.5338595
-0.52325517,-0.064787105,0.3412708,0.03711094,0.20286545,-0.32696572,0.8041191,0.27146146,0.3228122,0.01754485,0.5829245,-0.53394294
-0.5228347,-0.06297758,0.3547274,0.04125431,0.19059671,-0.32843643,0.8025991,0.2790293,0.2752304,0.017061159,0.5830275,-0.5340555
-0.5160557,-0.07529977,0.3582691,0.047209796,0.17730676,-0.3272323,0.8025991,0.2790293,0.2752304,0.016707301,0.58296406,-0.5340731
-0.51828754,-0.076519564,0.33810508,0.054386973,0.16559686,-0.33195487,0.8163862,0.27933198,0.2976792,0.016483143,0.58276343,-0.5342221
-0.5189299,-0.071487606,0.35104692,0.05694546,0.16307102,-0.33686885,0.8163862,0.27933198,0.2976792,0.016288534,0.58250153,-0.5344248
-0.5168282,-0.078755274,0.3592502,0.061442874,0.1527918,-0.3389198,0.82405376,0.27894333,0.2877394,0.016181529,0.5821276,-0.5346265
-0.52061874,-0.07678333,0.36220407,0.066479005,0.13918251,-0.33880642,0.82405376,0.27894333,0.2877394,0.01618129,0.5815804,-0.53480625
-0.5253456,-0.076916024,0.36591077,0.07145471,0.12517744,-0.33670676,0.81639445,0.2703401,0.28673935,0.016298875,0.58089054,-0.5347142
-0.53468555,-0.07527901,0.35316396,0.07624637,0.11214219,-0.3368459,0.81639445,0.2703401,0.28673935,0.016516373,0.5800344,-0.53477144
-0.53479147,-0.07568392,0.3416518,0.08108166,0.1020055,-0.33534625,0.81320083,0.27607968,0.28136694,0.01684326,0.5790806,-0.53484845
-0.5350201,-0.07164791,0.35996163,0.08232122,0.092808716,-0.33491313,0.81320083,0.27607968,0.28136694,0.017200321,0.5780053,-0.5348065
-0.5359411,-0.07098703,0.35780084,0.08276824,0.08179628,-0.332938,0.81229997,0.27371082,0.30241096,0.01758185,0.5768235,-0.53472185
-0.5308167,-0.07478377,0.3673246,0.08296547,0.06714912,-0.3312278,0.81229997,0.27371082,0.30241096,0.01798077,0.5754609,-0.5345228
-0.5323509,-0.081283435,0.36786652,0.084614396,0.055446565,-0.33138576,0.7948059,0.2765108,0.28505123,0.018418878,0.57397676,-0.5343461
-0.5344248,-0.08520818,0.37590516,0.08717969,0.032987267,-0.3373456,0.7948059,0.2765108,0.28505123,0.018892422,0.57219493,-0.5341966
-0.5348704,-0.07926987,0.3884474,0.08511524,0.012973458,-0.34374204,0.8124938,0.27357566,0.29711854,0.019308731,0.5701739,-0.5341444
-0.5281349,-0.08906551,0.38782907,0.08015847,-0.008845195,-0.3518095,0.8124938,0.27357566,0.29711854,0.01960145,0.56785583,-0.53421855
-0.5491875,-0.08031866,0.36144817,0.074548945,-0.023673102,-0.36362725,0.79225934,0.2788037,0.25839448,0.019741207,0.56534207,-0.5345609
-0.5464405,-0.07819295,0.34363878,0.06606007,-0.024418056,-0.37149823,0.79225934,0.2788037,0.25839448,0.019678518,0.5627776,-0.5350516
-0.5313636,-0.07416496,0.3569231,0.056329086,-0.02434802,-0.37377304,0.79635394,0.27543193,0.24272287,0.019414738,0.560222,-0.5354793
-0.5351378,-0.077209756,0.3795141,0.047096606,-0.033010438,-0.37923256,0.79635394,0.27543193,0.24272287,0.018948197,0.5575315,-0.5361233
-0.52489895,-0.07168643,0.4320221,0.038447097,-0.054712042,-0.38874874,0.8004317,0.29004496,0.2489332,0.01828289,0.5545744,-0.5372176
-0.50972724,-0.08331831,0.4431833,0.027591653,-0.08875781,-0.40038943,0.8004317,0.29004496,0.2489332,0.017372325,0.5511619,-0.5381906
-0.5020239,-0.08216262,0.42927682,0.013500698,-0.12059957,-0.4172272,0.7895287,0.2722388,0.22608805,0.01613471,0.5473343,-0.5389674
-0.500653,-0.08177717,0.41273975,-0.0037366152,-0.14523646,-0.42987394,0.7895287,0.2722388,0.22608805,0.014516965,0.5431612,-0.5404482
-0.49132815,-0.08688596,0.40033984,-0.02236753,-0.16693807,-0.43585,0.7681242,0.2872662,0.23004961,0.012521207,0.5387303,-0.54217005
-0.4987139,-0.07996254,0.41417563,-0.047677115,-0.19295424,-0.432822,0.7681242,0.2872662,0.23004961,0.0100504905,0.5339854,-0.5435519
-0.513345,-0.07258144,0.39961362,-0.08577916,-0.21396965,-0.41741446,0.77227736,0.28984505,0.2199086,0.0068969876,0.52906334,-0.5444279
-0.48992524,-0.08808777,0.4024366,-0.13216284,-0.22762501,-0.4006197,0.77227736,0.28984505,0.2199086,0.0028927922,0.5240227,-0.54491544
-0.47292128,-0.11052124,0.3677981,-0.18338966,-0.24155217,-0.38632613,0.763013,0.30983585,0.19861603,-0.002066061,0.51889026,-0.5452404
-0.46448106,-0.13244548,0.34491992,-0.23561436,-0.25168395,-0.3775469,0.763013,0.30983585,0.19861603,-0.008023575,0.51365393,-0.54504657
-0.46337205,-0.14638168,0.30588222,-0.29229775,-0.24489939,-0.37325108,0.7711841,0.3210771,0.18915474,-0.015090689,0.50853306,-0.54478693
-0.4499557,-0.2347556,0.31405282,-0.33273274,-0.21087271,-0.37896538,0.7711841,0.3210771,0.18915474,-0.022994176,0.5037663,-0.54465437
-0.46380562,-0.23235318,0.28899395,-0.37366775,-0.21975014,-0.42454785,0.7498367,0.3420552,0.19864476,-0.031853944,0.49872318,-0.5456815
-0.4388984,-0.20279306,0.31958616,-0.42693242,-0.2083067,-0.43308568,0.7498367,0.3420552,0.19864476,-0.041796982,0.49374717,-0.54665375
-0.41308257,-0.18349567,0.31790817,-0.49051976,-0.19091082,-0.41636574,0.7540498,0.35058355,0.19403422,-0.052948445,0.48905715,-0.54701257
-0.4141781,-0.20042315,0.32614243,-0.54799443,-0.16944286,-0.39389393,0.7540498,0.35058355,0.19403422,-0.065174565,0.48470053,-0.5470979
-0.41538417,-0.23248908,0.3470316,-0.59356385,-0.161665,-0.38567805,0.7272899,0.3733732,0.15538406,-0.07827577,0.48049197,-0.54678106
-0.41943914,-0.2766974,0.35772347,-0.6217041,-0.16994977,-0.39641875,0.7272899,0.3733732,0.15538406,-0.09195468,0.47611576,-0.5467496
-0.41865358,-0.3099556,0.34479833,-0.6386082,-0.17054144,-0.42556316,0.7377858,0.40943345,0.21068966,-0.1060462,0.4715876,-0.5477381
-0.39914295,-0.32073817,0.36115158,-0.6483394,-0.18031472,-0.46716923,0.7377858,0.40943345,0.21068966,-0.12043002,0.4666707,-0.5490174
-0.3902061,-0.30416378,0.3196286,-0.6555885,-0.20448095,-0.49462953,0.724756,0.42657623,0.18895757,-0.13500199,0.46131092,-0.5503924
-0.39480776,-0.28667235,0.25631082,-0.6669275,-0.19651306,-0.5079683,0.724756,0.42657623,0.18895757,-0.14982268,0.45591238,-0.55224466
-0.40629026,-0.27507603,0.22922933,-0.67569745,-0.16751602,-0.50840586,0.71068025,0.45642668,0.21003246,-0.16482049,0.4508235,-0.5542011
-0.41097692,-0.28082255,0.23027551,-0.6896693,-0.14999527,-0.49608493,0.71068025,0.45642668,0.21003246,-0.18005797,0.44596958,-0.5558319
-0.40810913,-0.29681456,0.21251214,-0.7190516,-0.13113785,-0.47796786,0.6876105,0.4940997,0.18817306,-0.19583207,0.44145286,-0.5571165
-0.40150583,-0.32187617,0.1875807,-0.7495835,-0.105113894,-0.46494853,0.6876105,0.4940997,0.18817306,-0.21218684,0.4372798,-0.55815697
-0.38530397,-0.35318616,0.18519568,-0.7773405,-0.06600416,-0.45610434,0.6977284,0.5214361,0.24312127,-0.22909024,0.43359977,-0.5593679
-0.36871877,-0.3853957,0.14537156,-0.7941434,-0.041156635,-0.45114386,0.6977284,0.5214361,0.24312127,-0.24632397,0.43018657,-0.5603621
-0.40863475,-0.40818572,-0.008859396,-0.8191445,0.14079979,-0.4435493,0.6950871,0.55374706,0.25469577,-0.26417595,0.42873555,-0.56243014
-0.35465068,-0.40314317,0.2898265,-0.86170775,0.28040457,-0.4673759,0.6950871,0.55374706,0.25469577,-0.28304237,0.42844325,-0.56598043
-0.32958984,-0.40355623,0.33905149,-0.88736796,0.09520476,-0.46652496,0.6808257,0.57474077,0.27011895,-0.30225086,0.42623764,-0.5676305
-0.34840792,-0.47580075,0.118917465,-0.8960034,-0.05440642,-0.4426353,0.6808257,0.57474077,0.27011895,-0.32143915,0.42272037,-0.5679729
-0.36795023,-0.51382214,-0.006152272,-0.9,-0.031065494,-0.44013596,0.6702546,0.6106167,0.3023349,-0.34071046,0.4194732,-0.56839514
-0.37227666,-0.5083812,-0.055305004,-0.8934594,0.06707075,-0.43936366,0.6702546,0.6106167,0.3023349,-0.35993153,0.41715795,-0.5695245
-0.3679101,-0.53303504,0.038654327,-0.8717949,0.16561303,-0.43599588,0.6827252,0.6357965,0.38923204,-0.37879944,0.41582102,-0.57175374
-0.35638058,-0.5478775,0.11853266,-0.82761264,0.14570013,-0.4403904,0.6827252,0.6357965,0.38923204,-0.3967706,0.41419357,-0.5734918
-0.3585282,-0.5661902,0.07138479,-0.7565577,0.00806725,-0.45740846,0.68417,0.6737286,0.396075,-0.41321397,0.41109455,-0.5742655
-0.38476226,-0.5857836,-0.08661246,-0.65637827,-0.109675765,-0.46438104,0.68417,0.6737286,0.396075,-0.42754978,0.40681365,-0.5738914
-0.41493452,-0.57577866,-0.22447884,-0.54023343,-0.118050694,-0.46977493,0.6719518,0.6807995,0.43767834,-0.43956262,0.4024189,-0.57335377
-0.4135505,-0.55101585,-0.22928,-0.42896774,-0.07182872,-0.4697163,0.6719518,0.6807995,0.43767834,-0.4493984,0.39841878,-0.5732939
-0.40437037,-0.5226128,-0.18916571,-0.3335206,-0.030270562,-0.45550877,0.6614574,0.7046412,0.453543,-0.45734298,0.3949826,-0.57357216
-0.39558324,-0.5101414,-0.13152015,-0.26655388,-0.0197151,-0.44046876,0.6614574,0.7046412,0.453543,-0.46393603,0.39180088,-0.5734532
-0.38075432,-0.5107968,-0.12447941,-0.21983957,-0.020153955,-0.42475295,0.6576822,0.71078503,0.46404338,-0.4695686,0.38883585,-0.573009
-0.3731854,-0.52042097,-0.14823866,-0.18439646,-0.010597676,-0.40748364,0.6576822,0.71078503,0.46404338,-0.47447795,0.3861492,-0.5723839
-0.36139572,-0.53909856,-0.16449249,-0.1509414,0.0022020042,-0.3942312,0.65072167,0.7136766,0.45822948,-0.47870862,0.38376522,-0.5714016
-0.35626227,-0.562286,-0.15669322,-0.11950761,0.015856862,-0.38332108,0.65072167,0.7136766,0.45822948,-0.4823122,0.38161635,-0.5706208
-0.3457262,-0.5707738,-0.1793313,-0.089025095,0.01732035,-0.38400418,0.6479714,0.7250955,0.44780296,-0.48530763,0.379498,-0.5697789
-0.3276523,-0.5808288,-0.17817974,-0.06206125,0.031211779,-0.37774658,0.6479714,0.7250955,0.44780296,-0.4877723,0.37755495,-0.5690489
-0.32061517,-0.594104,-0.15892243,-0.04367736,0.039164975,-0.37561062,0.63685787,0.72540814,0.45213002,-0.48987192,0.3757328,-0.56830525
-0.3157661,-0.60494405,-0.14819777,-0.035487637,0.038655594,-0.37990102,0.63685787,0.72540814,0.45213002,-0.49181688,0.37382764,-0.5676758
-0.30966792,-0.6160293,-0.14767659,-0.033039995,0.038361713,-0.38064435,0.64191186,0.7303548,0.42094493,-0.49371016,0.37193444,-0.56665635
-0.30998987,-0.6277454,-0.13926756,-0.03162852,0.048894167,-0.3828902,0.64191186,0.7303548,0.42094493,-0.49559152,0.37007865,-0.56617236
-0.30934632,-0.63914967,-0.123788595,-0.028470032,0.042971626,-0.38472107,0.64834106,0.7428101,0.45910227,-0.49740648,0.36817983,-0.56628036
-0.3043778,-0.6419538,-0.13203359,-0.028913647,0.039624408,-0.38459557,0.64834106,0.7428101,0.45910227,-0.49922812,0.3662263,-0.565716
-0.29175574,-0.6399559,-0.15929687,-0.033175953,0.050451696,-0.38332427,0.6413791,0.7457016,0.45328832,-0.50114,0.36440608,-0.5652704
-0.28180125,-0.64396876,-0.17374587,-0.038842075,0.06015002,-0.38257903,0.6413791,0.7457016,0.45328832,-0.50317454,0.36265135,-0.5648804
-0.27218384,-0.63925266,-0.18471944,-0.04969752,0.07788384,-0.383023,0.64222145,0.74211985,0.4267137,-0.5054367,0.36106026,-0.5640967
-0.26527604,-0.636283,-0.19370759,-0.06385869,0.09298504,-0.3847494,0.64222145,0.74211985,0.4267137,-0.50799966,0.35954994,-0.56407905
-0.26452178,-0.6279973,-0.20336294,-0.077832416,0.10831742,-0.38633093,0.6331984,0.74345225,0.47368956,-0.51085424,0.3581727,-0.5646453
-0.27080598,-0.63323843,-0.21659029,-0.092695266,0.1278669,-0.38640034,0.6331984,0.74345225,0.47368956,-0.51402175,0.3569268,-0.56501436
-0.27278125,-0.636071,-0.20356584,-0.10494794,0.13628295,-0.3878965,0.635116,0.760088,0.44266057,-0.5174388,0.35575262,-0.5653131
-0.27415973,-0.64344424,-0.21363509,-0.1136066,0.14262083,-0.39178246,0.635116,0.760088,0.44266057,-0.5210402,0.35455275,-0.5659125
-0.273897,-0.6445506,-0.21562505,-0.12132697,0.15357938,-0.3923605,0.6267998,0.7639222,0.47388464,-0.5248028,0.3534582,-0.5668626
-0.27392915,-0.64531666,-0.2180003,-0.12705415,0.163503,-0.3910672,0.6267998,0.7639222,0.47388464,-0.5286866,0.3524319,-0.5676644
-0.27758282,-0.6409863,-0.21132052,-0.12992944,0.1728526,-0.3886115,0.640064,0.7705787,0.5177347,-0.5326313,0.35153908,-0.5690775
-0.28268152,-0.6445716,-0.2214557,-0.13136199,0.17685518,-0.38397902,0.640064,0.7705787,0.5177347,-0.53660214,0.3507092,-0.5699053
-0.28601685,-0.6502716,-0.21741652,-0.12878051,0.1856851,-0.3816265,0.6296561,0.7733943,0.5063101,-0.5405225,0.35000163,-0.57050633
-0.28429598,-0.65388703,-0.20878637,-0.122956514,0.19515763,-0.3785568,0.6296561,0.7733943,0.5063101,-0.5443333,0.34938407,-0.5714445
-0.28382197,-0.6591448,-0.19336164,-0.11479552,0.20016083,-0.37538323,0.64043224,0.7882933,0.5290341,-0.54798025,0.34887308,-0.57270265
-0.23973326,-0.6824294,-0.31566226,-0.11578764,0.19667059,-0.37647623,0.64043224,0.7882933,0.5290341,-0.5516461,0.34828943,-0.57361984
-0.280305,-0.6730947,-0.3110721,-0.12613437,0.18111782,-0.3821507,0.6055794,0.78780746,0.48349375,-0.5555069,0.34752315,-0.5735862
-0.27769405,-0.667051,-0.27689636,-0.1159102,0.21683426,-0.38319272,0.6055794,0.78780746,0.48349375,-0.5591975,0.3469959,-0.5748224
-0.25993288,-0.65561914,-0.16357398,-0.08680937,0.26488167,-0.3795985,0.61149395,0.7976247,0.53211457,-0.562342,0.34691232,-0.57700205
-0.26161787,-0.64450985,-0.09163034,-0.060735524,0.26387268,-0.37567908,0.61149395,0.7976247,0.53211457,-0.5649624,0.34684312,-0.57865405
-0.2732259,-0.6466284,-0.104022145,-0.060574457,0.2338476,-0.37225872,0.6215826,0.79203594,0.5487124,-0.5675487,0.3466131,-0.5799036
-0.2710784,-0.6584174,-0.14728498,-0.07485221,0.20503327,-0.3750622,0.6215826,0.79203594,0.5487124,-0.57040167,0.3460964,-0.58087826
-0.2692232,-0.6681562,-0.19910455,-0.083322585,0.19883154,-0.3810902,0.621379,0.80116296,0.5649426,-0.5734216,0.3454714,-0.58207536
-0.26442462,-0.67314845,-0.21888864,-0.08031559,0.2047918,-0.38287172,0.621379,0.80116296,0.5649426,-0.5763903,0.34483737,-0.5831554
-0.26470512,-0.6757251,-0.23354506,-0.0728233,0.21447983,-0.38183254,0.6347785,0.80173475,0.59797394,-0.57921326,0.34431446,-0.5846307
-0.2685707,-0.68199885,-0.2471286,-0.06501889,0.21830852,-0.37865868,0.6347785,0.80173475,0.59797394,-0.58188283,0.3438356,-0.5858004
-0.26259044,-0.6908481,-0.2550521,-0.061058924,0.2183002,-0.37476507,0.6282629,0.81030566,0.5871079,-0.5844651,0.34343302,-0.5867996
-0.25995874,-0.6960135,-0.26553023,-0.06143254,0.21515085,-0.37218517,0.6282629,0.81030566,0.5871079,-0.5870534,0.3430171,-0.58783674
-0.25992543,-0.70000607,-0.27021325,-0.064570606,0.21465763,-0.3699409,0.6356598,0.82208633,0.5988097,-0.589698,0.3426526,-0.5890033
-0.25921366,-0.70718503,-0.26387286,-0.06690569,0.21530122,-0.36620653,0.6356598,0.82208633,0.5988097,-0.59238917,0.34231818,-0.5899544
-0.26586652,-0.71065134,-0.26311743,-0.06792207,0.20869543,-0.35983813,0.62461317,0.8193567,0.59772545,-0.59508413,0.3420474,-0.5905254
-0.2709964,-0.7140948,-0.25606358,-0.06618036,0.20551816,-0.35456234,0.62461317,0.8193567,0.59772545,-0.5977412,0.3418041,-0.5911968
-0.27561694,-0.7244088,-0.22984004,-0.06278443,0.19932966,-0.3527939,0.61337256,0.81676227,0.6019334,-0.60031897,0.34156287,-0.5915835
-0.2629559,-0.7231916,-0.25226486,-0.05933319,0.17336003,-0.34960505,0.61337256,0.81676227,0.6019334,-0.6028086,0.34115463,-0.5918081
-0.26093853,-0.72116935,-0.29192996,-0.056702368,0.19457479,-0.34654266,0.6134994,0.8196694,0.60205454,-0.6052551,0.34096718,-0.59210944
-0.26108298,-0.7203262,-0.235865,-0.055625774,0.20652124,-0.34835157,0.6134994,0.8196694,0.60205454,-0.6076961,0.34081483,-0.59270334
-0.26397067,-0.72550017,-0.20279002,-0.054373875,0.16793317,-0.35937983,0.603217,0.8253934,0.59074706,-0.610086,0.34024698,-0.5927937
-0.26003855,-0.71550137,-0.25340116,-0.054291114,0.14629132,-0.36696416,0.603217,0.8253934,0.59074706,-0.61246896,0.3393901,-0.5929303
-0.26847887,-0.7252835,-0.25386965,-0.051654957,0.14634421,-0.36507246,0.6201309,0.8229977,0.62397957,-0.614793,0.33858633,-0.59322524
-0.27615842,-0.737224,-0.25566173,-0.042703107,0.13394322,-0.37442368,0.6201309,0.8229977,0.62397957,-0.61694145,0.3375321,-0.5933113
-0.2725646,-0.7364904,-0.27717018,-0.030548736,0.12437567,-0.38582328,0.6017262,0.8324218,0.63860387,-0.61884576,0.3362689,-0.59372497
-0.27662677,-0.72638834,-0.29378438,-0.018423088,0.121569656,-0.3910809,0.6017262,0.8324218,0.63860387,-0.6205149,0.3348825,-0.59388304
-0.28283316,-0.72217023,-0.29329348,-0.0036685243,0.12175774,-0.3931761,0.60256016,0.8378319,0.62297124,-0.6218858,0.33348995,-0.5939274
-0.282305,-0.72326416,-0.29651248,0.012632832,0.12354204,-0.39675188,0.60256016,0.8378319,0.62297124,-0.6229418,0.3320335,-0.5941794
-0.2851103,-0.72426766,-0.3101033,0.02980227,0.13318698,-0.40083018,0.62445974,0.84342515,0.63042814,-0.62366074,0.33060962,-0.594687
-0.28771043,-0.7177959,-0.32063878,0.047278944,0.14195569,-0.4059171,0.62445974,0.84342515,0.63042814,-0.6240472,0.32914674,-0.59527826
-0.28669217,-0.7121476,-0.31241345,0.06538327,0.14941764,-0.41017056,0.6031891,0.852369,0.6235689,-0.62407595,0.3276989,-0.5960903
-0.28045166,-0.713346,-0.3099239,0.08560226,0.15101582,-0.41692594,0.6031891,0.852369,0.6235689,-0.6237134,0.32613716,-0.59693646
-0.27620438,-0.71409434,-0.29805732,0.105232954,0.15560907,-0.4241867,0.6025504,0.84682375,0.6339112,-0.6229624,0.32452697,-0.5980017
-0.27211636,-0.7229717,-0.2896818,0.12448408,0.15458737,-0.43350002,0.6025504,0.84682375,0.6339112,-0.62183946,0.3227475,-0.5991161
-0.2657257,-0.7250886,-0.2794329,0.14248607,0.14807904,-0.44351333,0.5992967,0.8466138,0.6230082,-0.62035394,0.32080156,-0.6001923
-0.26245436,-0.73095554,-0.27636373,0.16039124,0.14422145,-0.44931552,0.5992967,0.8466138,0.6230082,-0.6185188,0.31871986,-0.60140395
-0.25613028,-0.7378588,-0.2699721,0.17880622,0.13694122,-0.45543808,0.5987166,0.84701806,0.6388811,-0.6163103,0.31652704,-0.60293555
-0.24629602,-0.7378063,-0.2716695,0.19678308,0.13324183,-0.4568801,0.5987166,0.84701806,0.6388811,-0.6137464,0.3142618,-0.60413337
-0.23992585,-0.7381844,-0.25713992,0.21742526,0.13218781,-0.45719573,0.5970025,0.8547211,0.59658974,-0.6107627,0.3120121,-0.60508823
-0.24124175,-0.7426965,-0.24377394,0.23678894,0.12772387,-0.4588527,0.5970025,0.8547211,0.59658974,-0.60739774,0.3096854,-0.60626745
-0.23907751,-0.734404,-0.23506069,0.2554403,0.122789234,-0.45956928,0.5971379,0.84863645,0.58576894,-0.60365105,0.307342,-0.60728216
-0.24483427,-0.7313491,-0.21004939,0.27035612,0.11750392,-0.4581403,0.5971379,0.84863645,0.58576894,-0.5996088,0.3049599,-0.6083574
-0.2421627,-0.72490406,-0.21477711,0.2814222,0.10964867,-0.46294856,0.5867982,0.8484097,0.56893283,-0.59533787,0.30248162,-0.60941195
-0.24032195,-0.7255905,-0.23942113,0.28567368,0.10117286,-0.47340134,0.5867982,0.8484097,0.56893283,-0.59099025,0.2997694,-0.6105411
-0.2340648,-0.729635,-0.25016892,0.28297454,0.10103522,-0.4861108,0.58354604,0.8481998,0.5580299,-0.5866981,0.29690626,-0.611959
-0.2246053,-0.7309134,-0.2601366,0.2785871,0.11444077,-0.49436998,0.58354604,0.8481998,0.5580299,-0.58251053,0.2940038,-0.61357164
-0.22243257,-0.7376934,-0.25281155,0.27260864,0.1210304,-0.5032849,0.5593523,0.8507138,0.52415454,-0.57844317,0.29105628,-0.615242
-0.21824877,-0.7402263,-0.2505436,0.26832658,0.13017331,-0.51135236,0.5593523,0.8507138,0.52415454,-0.5744748,0.28804523,-0.61731124
-0.21690583,-0.7295906,-0.2385534,0.26597148,0.13642302,-0.5183714,0.5733988,0.84783787,0.53590155,-0.5705534,0.28501862,-0.61981654
-0.215299,-0.72690994,-0.22490811,0.2653368,0.1472175,-0.5233427,0.5733988,0.84783787,0.53590155,-0.5666542,0.28198498,-0.62228584
-0.2093544,-0.721522,-0.22010696,0.26349938,0.15204781,-0.53003216,0.5605042,0.85889596,0.50334877,-0.56278926,0.27893096,-0.6249492
-0.20210601,-0.7189329,-0.22212958,0.26371276,0.15621395,-0.5346662,0.5605042,0.85889596,0.50334877,-0.5589257,0.27582753,-0.6277187
-0.19741449,-0.72056603,-0.20376372,0.26182023,0.15127786,-0.5407872,0.5601933,0.847132,0.49757993,-0.5550921,0.27263704,-0.6303606
-0.18988933,-0.71017724,-0.2062149,0.2615679,0.12889299,-0.5520406,0.5601933,0.847132,0.49757993,-0.5512617,0.2691018,-0.63311815
-0.18545541,-0.7006674,-0.2088002,0.25733516,0.10784722,-0.5577788,0.5289624,0.86457074,0.47424197,-0.54750323,0.2653615,-0.63601685
-0.17898083,-0.6983449,-0.223598,0.25532264,0.08925773,-0.5606686,0.5289624,0.86457074,0.47424197,-0.54377896,0.2614166,-0.6385045
-0.17499566,-0.6986336,-0.23984206,0.25351477,0.07736858,-0.56870675,0.5313916,0.85037875,0.48983967,-0.54008263,0.2573046,-0.6411228
-0.17643811,-0.6880919,-0.24919891,0.25138628,0.076062806,-0.5762156,0.5313916,0.85037875,0.48983967,-0.5364298,0.25306153,-0.64374256
-0.17790797,-0.67585486,-0.2505833,0.2478114,0.075196855,-0.58228815,0.53240836,0.86464673,0.4798547,-0.5328431,0.24876761,-0.6468499
-0.17879263,-0.6591208,-0.26224017,0.24499589,0.07647031,-0.5832738,0.53240836,0.86464673,0.4798547,-0.5293095,0.24445076,-0.64962506
-0.17805383,-0.65561706,-0.2512201,0.24659523,0.08725646,-0.57946205,0.5236949,0.85130686,0.40433896,-0.5257334,0.24030206,-0.6513467
-0.17466521,-0.647316,-0.238132,0.24527462,0.09646744,-0.5817181,0.5236949,0.85130686,0.40433896,-0.5221864,0.23618665,-0.6543572
-0.16979206,-0.638985,-0.2324574,0.24547036,0.11628433,-0.57957387,0.51250315,0.86365384,0.42501736,-0.5186319,0.2323014,-0.65809727
-0.16630816,-0.627641,-0.21023309,0.24785374,0.131243,-0.57799137,0.51250315,0.86365384,0.42501736,-0.5150261,0.22853968,-0.66146326
-0.16074848,-0.6193047,-0.18487406,0.25015947,0.14387125,-0.57538664,0.49320722,0.86171716,0.4497457,-0.5113692,0.22495863,-0.6655371
-0.1526435,-0.61647666,-0.16124487,0.2519886,0.15776071,-0.57712543,0.49320722,0.86171716,0.4497457,-0.5076715,0.22145012,-0.6692095
-0.14356275,-0.6165385,-0.15493381,0.25533816,0.16685416,-0.5765828,0.50612414,0.8661411,0.40333056,-0.50389856,0.21806331,-0.67270255
-0.13856253,-0.61358553,-0.14773405,0.26252574,0.1770168,-0.5763197,0.50612414,0.8661411,0.40333056,-0.49997938,0.21475196,-0.67660236
-0.14105877,-0.6188361,-0.09818053,0.27364758,0.18006869,-0.5776003,0.5029472,0.85389686,0.37607622,-0.49582857,0.2114893,-0.6799922
-0.14306931,-0.611068,-0.0888412,0.28758746,0.16928743,-0.57925534,0.5029472,0.85389686,0.37607622,-0.49139684,0.20810631,-0.6838987
-0.15979883,-0.61168337,-0.15782261,0.30190012,0.18437247,-0.58012223,0.4857056,0.8625113,0.3589568,-0.48667216,0.20488556,-0.68810844
-0.14660971,-0.59716666,-0.1544627,0.31924552,0.23984018,-0.5858691,0.4857056,0.8625113,0.3589568,-0.48159605,0.20205207,-0.69289255
-0.13013779,-0.59086084,-0.09437704,0.34396896,0.24747354,-0.60080874,0.47575235,0.86201537,0.3315382,-0.47601753,0.1991465,-0.6978953
-0.12180572,-0.5844265,-0.09351182,0.36624876,0.24303116,-0.6247828,0.47575235,0.86201537,0.3315382,-0.46998733,0.19590108,-0.703393
-0.106502816,-0.5738504,-0.06377566,0.3819065,0.23782028,-0.64943165,0.468598,0.86504096,0.3310145,-0.46363324,0.19236541,-0.70959616
-0.09100102,-0.5647611,-0.05237055,0.3914671,0.23305903,-0.66869205,0.468598,0.86504096,0.3310145,-0.45707548,0.18855521,-0.71578145
-0.07855789,-0.56231254,-0.025196671,0.39183345,0.22957858,-0.67883396,0.46094012,0.8564378,0.33001435,-0.45049584,0.18465766,-0.7222383
-0.070776686,-0.5637533,0.027401805,0.38687307,0.20683324,-0.6816989,0.46094012,0.8564378,0.33001435,-0.44400454,0.18053485,-0.7284577
-0.0574623,-0.5689312,0.042931795,0.38309097,0.17538972,-0.66561115,0.43094617,0.8610337,0.25857937,-0.4375803,0.17639127,-0.7337179
-0.06814656,-0.59223485,0.013566852,0.38000545,0.1620738,-0.64887816,0.43094617,0.8610337,0.25857937,-0.43121427,0.17233777,-0.73902416
-0.08001193,-0.61348885,0.06470084,0.37933123,0.14205168,-0.6479498,0.4440263,0.8588323,0.29678178,-0.4248547,0.16817829,-0.7447181
-0.07660335,-0.61103696,0.028120995,0.37817228,0.12314776,-0.6545383,0.4440263,0.8588323,0.29678178,-0.41850656,0.1637698,-0.74982905
-0.07939839,-0.5935924,0.054689646,0.37018213,0.119169205,-0.6444202,0.42379183,0.8640592,0.25805557,-0.4123103,0.15950276,-0.75488925
-0.08045682,-0.5930406,0.06318927,0.3551559,0.10760967,-0.6306213,0.42379183,0.8640592,0.25805557,-0.4064104,0.15528895,-0.7595179
-0.06419705,-0.59344023,0.08622658,0.34119555,0.09999148,-0.6244315,0.42476946,0.8543939,0.22066021,-0.40078115,0.15112755,-0.7635648
-0.047637075,-0.59336126,0.1024611,0.32611164,0.08706103,-0.6256828,0.42476946,0.8543939,0.22066021,-0.39544636,0.14682926,-0.7679882
-0.049143367,-0.57849836,0.11190522,0.31089175,0.07082499,-0.62548375,0.3961702,0.8485136,0.1966877,-0.39040846,0.14243129,-0.7721193
-0.050367743,-0.571565,0.090682864,0.2955053,0.06625917,-0.6251758,0.3961702,0.8485136,0.1966877,-0.3856684,0.13798657,-0.7764102
-0.05156933,-0.566766,0.10745263,0.28176454,0.060428716,-0.62999547,0.39648116,0.8602786,0.20245647,-0.3811928,0.1334834,-0.78128195
-0.047793485,-0.55552304,0.10577476,0.27134696,0.055317268,-0.640618,0.39648116,0.8602786,0.20245647,-0.3769055,0.12880147,-0.78581345
-0.035464935,-0.53287303,0.11275029,0.26576656,0.052541137,-0.65050554,0.3900422,0.8568152,0.17524111,-0.37271166,0.1240308,-0.7903763
-0.0364796,-0.52121186,0.13029265,0.26560724,0.029426962,-0.6543103,0.3900422,0.8568152,0.17524111,-0.36851323,0.118989624,-0.7949883
-0.031367004,-0.5045108,0.10038209,0.2718893,0.037478134,-0.6604462,0.3757419,0.8538757,0.1632539,-0.36416912,0.1140061,-0.7997515
-0.034489788,-0.49443382,0.12590313,0.28147155,0.036430478,-0.6596991,0.3757419,0.8538757,0.1632539,-0.3596204,0.109012574,-0.8045901
-0.048936367,-0.4937365,0.113051176,0.29652208,0.035321593,-0.6684927,0.34687203,0.86016476,0.16092288,-0.35475278,0.10396745,-0.81005347
-0.04650732,-0.46966028,0.12312007,0.31454068,0.049048454,-0.671893,0.34687203,0.86016476,0.16092288,-0.349499,0.09901196,-0.81529975
-0.026216045,-0.45664984,0.13487244,0.32664737,0.039691508,-0.6695334,0.35122883,0.85361654,0.13455164,-0.3439955,0.094045706,-0.82024336
-0.031439997,-0.44079858,0.11468005,0.33863282,0.04039973,-0.6664424,0.35122883,0.85361654,0.13455164,-0.3382405,0.089117795,-0.8253989
-0.017822966,-0.44202262,0.13402426,0.3594699,0.04516588,-0.66537964,0.33859503,0.8614983,0.09129703,-0.33205467,0.08430679,-0.83063066
-0.022197925,-0.4328956,0.12907445,0.3721902,0.037187204,-0.65488863,0.33859503,0.8614983,0.09129703,-0.3256151,0.07952553,-0.83563447
-0.024092987,-0.44294524,0.09566581,0.38725945,0.053137213,-0.64728165,0.3302971,0.84734875,0.100639224,-0.3188626,0.07504077,-0.840724
-0.0065995827,-0.4456815,0.13534021,0.4003989,0.06556513,-0.6451839,0.3302971,0.84734875,0.100639224,-0.31182846,0.07070315,-0.84586966
-0.000657171,-0.4288038,0.13029873,0.41315117,0.06433919,-0.6382008,0.2909035,0.8445543,0.07582259,-0.304538,0.06648862,-0.8511654
0.0028014705,-0.4172966,0.1274178,0.41751623,0.07490641,-0.62679076,0.2909035,0.8445543,0.07582259,-0.29715422,0.062494412,-0.8561255
0.0042383745,-0.40595955,0.13405728,0.42163002,0.08640912,-0.60617244,0.29590875,0.8345595,0.028167129,-0.2896984,0.058877513,-0.86045134
0.020486683,-0.41100723,0.14108956,0.431534,0.107454896,-0.5891298,0.29590875,0.8345595,0.028167129,-0.28204677,0.05563961,-0.86501586
0.022189826,-0.40758455,0.1594441,0.43505228,0.124078855,-0.5688946,0.29675102,0.8309777,0.0015925169,-0.27433762,0.05282344,-0.8693322
0.031925187,-0.41115785,0.21950066,0.4349576,0.12676927,-0.5515231,0.29675102,0.8309777,0.0015925169,-0.26664534,0.05019407,-0.87337303
0.044632733,-0.41182107,0.24445403,0.43140888,0.11700531,-0.534221,0.28870416,0.8226447,0.011172891,-0.25905228,0.047681153,-0.8773943
0.06421302,-0.41197556,0.20980573,0.42130408,0.123369634,-0.51956505,0.28870416,0.8226447,0.011172891,-0.25167024,0.04535702,-0.88083386
0.07784048,-0.4060002,0.23229218,0.40373358,0.12869218,-0.5018827,0.27895582,0.81302184,-0.03247595,-0.24466029,0.043296114,-0.8838639
0.08514629,-0.3934152,0.22719169,0.382005,0.118429616,-0.4854656,0.27895582,0.81302184,-0.03247595,-0.23810962,0.041258186,-0.88663185
0.0935673,-0.38818336,0.21800315,0.3582265,0.12084967,-0.4734469,0.28956604,0.8010792,-0.037281513,-0.23204982,0.039393976,-0.88911235
0.10200594,-0.3816655,0.1860416,0.33604538,0.12334661,-0.45791388,0.28956604,0.8010792,-0.037281513,-0.22645119,0.037669674,-0.89139175
0.100774884,-0.3717627,0.14273703,0.3181166,0.16265371,-0.43801433,0.2722742,0.7947521,-0.0708735,-0.22122222,0.03656721,-0.89351547
0.087656304,-0.36846873,0.21439826,0.30629945,0.15551062,-0.4270128,0.2722742,0.7947521,-0.0708735,-0.21624708,0.035458952,-0.89540374
0.07533251,-0.34944794,0.17358172,0.2941442,0.1746996,-0.41153997,0.26826614,0.77709675,-0.082493186,-0.2115317,0.03471686,-0.8968774
0.06119065,-0.32416773,0.22260094,0.28305197,0.18369655,-0.39212897,0.26826614,0.77709675,-0.082493186,-0.20706323,0.034204185,-0.8982471
0.059802398,-0.30494216,0.2165463,0.27464035,0.19959512,-0.3668387,0.25773263,0.77700514,-0.09403896,-0.20280251,0.034096897,-0.89940643
0.06574699,-0.29415724,0.23854291,0.26543975,0.21382205,-0.34029397,0.25773263,0.77700514,-0.09403896,-0.19876033,0.034322456,-0.8999033
0.057199568,-0.27642614,0.25961328,0.25774452,0.21330974,-0.318154,0.28328192,0.77354735,-0.09719956,-0.19491503,0.034744784,-0.89999986
0.041516513,-0.2600677,0.24238491,0.25456303,0.21744601,-0.2901539,0.28328192,0.77354735,-0.09719956,-0.1911776,0.03539604,-0.8994776
0.032004878,-0.25096112,0.28477716,0.2635913,0.23381233,-0.26136714,0.2802989,0.761168,-0.12974417,-0.18730474,0.036468744,-0.898268
0.02785094,-0.24517787,0.34512234,0.28488493,0.22505686,-0.2309113,0.2802989,0.761168,-0.12974417,-0.18306398,0.037641943,-0.89655197
0.015421212,-0.23089188,0.32712543,0.3045216,0.22516999,-0.1947574,0.2760871,0.7526396,-0.12513363,-0.17849752,0.039107412,-0.89427626
0.013462812,-0.22486809,0.33855867,0.32492226,0.24326234,-0.15258,0.2760871,0.7526396,-0.12513363,-0.17358512,0.041035995,-0.891016
0.023897842,-0.22764856,0.3298539,0.34710273,0.242991,-0.11772385,0.27986372,0.7464957,-0.13563418,-0.16829091,0.043228358,-0.8872893
0.018841118,-0.21572357,0.34078372,0.36626577,0.24834146,-0.08481422,0.27986372,0.7464957,-0.13563418,-0.16266298,0.045660704,-0.88260734
0.024117842,-0.2178354,0.356609,0.39065877,0.25073016,-0.056539267,0.30402678,0.7110565,-0.14010918,-0.15658963,0.04831925,-0.87693095
0.036326542,-0.21931478,0.33181858,0.4157418,0.25933772,-0.031150252,0.30402678,0.7110565,-0.14010918,-0.15005055,0.051186398,-0.871137
0.040237293,-0.2176736,0.30130494,0.42719594,0.27324483,0.0030211508,0.3048789,0.6984839,-0.17762363,-0.1433261,0.054430872,-0.8647462
0.029844373,-0.21074516,0.23182511,0.44025436,0.30027926,0.045915127,0.3048789,0.6984839,-0.17762363,-0.13639009,0.058184728,-0.85748315
0.027140468,-0.20901442,0.26511788,0.45864314,0.31252986,0.08807534,0.31850004,0.671945,-0.18270445,-0.12913615,0.06232749,-0.84936583
0.034341753,-0.20264518,0.24968159,0.48686314,0.32162428,0.12013087,0.31850004,0.671945,-0.18270445,-0.12135151,0.066685095,-0.840554
0.052428365,-0.20152846,0.19463658,0.50064456,0.348983,0.14583036,0.33393145,0.6411496,-0.24081516,-0.113301456,0.07146834,-0.83101356
0.04594426,-0.17588389,0.15057743,0.49623412,0.38006943,0.17357287,0.33393145,0.6411496,-0.24081516,-0.10535118,0.076667055,-0.82124496
0.031659618,-0.156124,0.11115718,0.4858393,0.43063682,0.21034008,0.33949733,0.61526847,-0.22537565,-0.09761879,0.0826057,-0.81111
0.027592719,-0.14314274,0.117823124,0.47790682,0.4822283,0.24636185,0.33949733,0.61526847,-0.22537565,-0.09004855,0.08922473,-0.80013144
0.02869299,-0.12775329,0.12980413,0.4738911,0.53373903,0.2807135,0.35408634,0.5880561,-0.256912,-0.08255094,0.096565485,-0.78861463
0.023246974,-0.113591954,0.15519226,0.4773743,0.5760828,0.31631202,0.35408634,0.5880561,-0.256912,-0.07497634,0.10446571,-0.77639365
0.019368783,-0.106128246,0.18026829,0.47911704,0.62335193,0.3487621,0.38151276,0.5438348,-0.26142383,-0.06734119,0.11300968,-0.7632854
0.015778959,-0.09853935,0.25158,0.47532642,0.67167854,0.37945676,0.38151276,0.5438348,-0.26142383,-0.05975294,0.12214051,-0.74991894
0.01678951,-0.07852478,0.318951,0.46171865,0.71562,0.41093582,0.41736263,0.51667047,-0.2751609,-0.052392945,0.1318589,-0.7360015
0.02538766,-0.06546627,0.39537024,0.43165612,0.7521456,0.44423473,0.41736263,0.51667047,-0.2751609,-0.045588657,0.14203227,-0.72134924
0.030686527,-0.060240746,0.41900384,0.38627586,0.7857471,0.47533256,0.44967723,0.47699046,-0.21012926,-0.03962618,0.15267085,-0.7061386
0.036222532,-0.05133544,0.45367444,0.32751417,0.82169724,0.50507754,0.44967723,0.47699046,-0.21012926,-0.034769475,0.1637518,-0.6902442
0.039774373,-0.043821126,0.4619286,0.26039684,0.8486645,0.5381633,0.45327812,0.45299792,-0.23721719,-0.031166568,0.17524861,-0.6737578
0.043801755,-0.03874381,0.4615723,0.19311844,0.8597681,0.56933004,0.45327812,0.45299792,-0.23721719,-0.02882123,0.18693739,-0.6564803
0.035806477,-0.030534476,0.44192207,0.13231295,0.86893547,0.59582055,0.50987566,0.42324352,-0.22269154,-0.027580544,0.1988371,-0.63854814
0.019197315,-0.02760823,0.4303949,0.07818572,0.87677747,0.6198535,0.50987566,0.42324352,-0.22269154,-0.027317971,0.2108963,-0.62018085
-0.012194924,-0.029645666,0.42287087,0.032093957,0.876321,0.6424047,0.514086,0.3983061,-0.17021394,-0.027849868,0.22306907,-0.6014292
-0.062701315,-0.04104276,0.40463853,-0.004140012,0.87687445,0.66570765,0.514086,0.3983061,-0.17021394,-0.028989464,0.2353434,-0.58206916
-0.11518889,-0.05106996,0.36851525,-0.022387743,0.8753351,0.6892142,0.53179204,0.37738836,-0.1800263,-0.030352354,0.24774274,-0.5621948
-0.17241806,-0.07049683,0.32735538,-0.026174515,0.8791422,0.7107328,0.53179204,0.37738836,-0.1800263,-0.031664252,0.26028687,-0.54188824
-0.22125274,-0.07623631,0.31259036,-0.022222847,0.8794821,0.7273015,0.5550945,0.36351463,-0.13604689,-0.03274691,0.27294996,-0.52155876
-0.25827017,-0.07681106,0.3155787,-0.029066406,0.87199664,0.75042176,0.5550945,0.36351463,-0.13604689,-0.033823535,0.28563035,-0.5003741
-0.31922448,-0.10004431,0.28775215,-0.04543586,0.86685824,0.7816212,0.5999383,0.3285277,-0.10684979,-0.035047233,0.29843006,-0.47839284
-0.35374916,-0.1289704,0.27037144,-0.05944383,0.8753826,0.8120022,0.5999383,0.3285277,-0.10684979,-0.036387205,0.31147242,-0.4558773
-0.3529805,-0.16208434,0.24757671,-0.06832482,0.8882038,0.83242977,0.6093477,0.29346037,-0.10732007,-0.03771858,0.32479906,-0.43263817
-0.3449718,-0.19076312,0.2428155,-0.068038866,0.89950866,0.84604025,0.6093477,0.29346037,-0.10732007,-0.038885057,0.33832753,-0.40946102
-0.3065665,-0.21311161,0.22805035,-0.059124477,0.8999999,0.8723428,0.6422341,0.26236904,-0.047221303,-0.039661765,0.35202074,-0.38576055
-0.3251428,-0.23925102,0.20853639,-0.052247934,0.8866889,0.8923539,0.6422341,0.26236904,-0.047221303,-0.040109575,0.36564666,-0.36148024
-0.39457592,-0.25611654,0.20004809,-0.051883467,0.8665262,0.9,0.6624963,0.23016533,-0.041317105,-0.040350676,0.3791014,-0.3368647
-0.45765004,-0.266201,0.21074986,-0.07159226,0.8677081,0.88070834,0.6624963,0.23016533,-0.041317105,-0.040866464,0.3924727,-0.3127048
-0.470613,-0.25364468,0.26141453,-0.10426071,0.867256,0.8449482,0.67826664,0.21059561,0.0017814636,-0.041937903,0.4057148,-0.2896824
-0.45691317,-0.2331306,0.30591846,-0.14427465,0.8474719,0.80404234,0.67826664,0.21059561,0.0017814636,-0.04374869,0.41855186,-0.26710033
-0.44516945,-0.21304798,0.36298597,-0.19373852,0.8212535,0.7612796,0.7068951,0.18949914,-0.0070677996,-0.046487644,0.43095756,-0.24548101
-0.45622844,-0.20231068,0.4181161,-0.23154926,0.78235435,0.71651626,0.7068951,0.18949914,-0.0070677996,-0.04995905,0.4427492,-0.22460651
-0.47513378,-0.17740145,0.47044683,-0.2575242,0.7428239,0.6668615,0.71014607,0.15624335,0.060925245,-0.05393769,0.45394143,-0.20454574
-0.48048982,-0.15178418,0.5292945,-0.27187663,0.70760655,0.6157389,0.71014607,0.15624335,0.060925245,-0.05823654,0.46453968,-0.18567109
-0.48612764,-0.1107786,0.5796373,-0.27252746,0.6730808,0.5736398,0.7201663,0.153698,0.08293247,-0.06255135,0.4746321,-0.16803217
-0.48983732,-0.07836631,0.61060286,-0.26194543,0.638268,0.54870784,0.7201663,0.153698,0.08293247,-0.06663822,0.48424977,-0.15042353
-0.510224,-0.050157398,0.6234164,-0.24132177,0.5905659,0.5283233,0.72554815,0.11895902,0.09272444,-0.07025787,0.4932986,-0.13260031
-0.5114123,-0.020738631,0.59659195,-0.212829,0.54551846,0.5204956,0.72554815,0.11895902,0.09272444,-0.0732477,0.5018306,-0.11525774
-0.52533394,-0.026760519,0.5584192,-0.18478858,0.50042844,0.52221537,0.7378918,0.11479534,0.051240206,-0.07555723,0.50992095,-0.09771609
-0.54830456,-0.05818641,0.52493834,-0.170367,0.46944973,0.5191695,0.7378918,0.11479534,0.051240206,-0.077515066,0.5176582,-0.08006549
-0.56264937,-0.09623547,0.4881674,-0.17194763,0.44416237,0.5042056,0.74275064,0.08641131,0.08243346,-0.079455405,0.52507865,-0.06247759
-0.5938364,-0.13246836,0.4314195,-0.18577817,0.42635065,0.47877932,0.74275064,0.08641131,0.08243346,-0.08170527,0.53217524,-0.04552412
-0.63316333,-0.16411075,0.4007398,-0.2069946,0.4104942,0.4560063,0.7450448,0.078303985,0.10885191,-0.08437514,0.5390296,-0.02944827
-0.6631206,-0.20036581,0.4014715,-0.21990916,0.38778806,0.43895125,0.7450448,0.078303985,0.10885191,-0.087313205,0.5455526,-0.013211012
-0.6913755,-0.23095298,0.43091285,-0.20686543,0.3646974,0.41861033,0.7524028,0.066151366,0.093143344,-0.08998293,0.5517651,0.002595663
-0.7126867,-0.2547799,0.4850719,-0.16328855,0.3328111,0.40045345,0.7524028,0.066151366,0.093143344,-0.09180075,0.55752635,0.018227577
-0.7179084,-0.26939452,0.5452206,-0.09722246,0.2834486,0.3826921,0.73911905,0.044012852,0.12826121,-0.09226903,0.56266844,0.033774376
-0.71402335,-0.2731417,0.60110307,-0.026106648,0.21962215,0.36713523,0.73911905,0.044012852,0.12826121,-0.09130797,0.5669768,0.049225807
-0.7216291,-0.25853428,0.6534202,0.04347472,0.15031591,0.35291147,0.7345964,0.023720525,0.12710297,-0.08890632,0.57042146,0.064759254
-0.72409874,-0.23311198,0.68560314,0.1067172,0.08514791,0.3309651,0.7345964,0.023720525,0.12710297,-0.0852707,0.57294244,0.08007908
-0.725087,-0.2061758,0.7115791,0.17728218,0.02247049,0.3009137,0.73760736,0.009123087,0.12682772,-0.08026245,0.5745571,0.09447265
-0.71976763,-0.1778039,0.7169905,0.25311625,-0.03827226,0.27151775,0.73760736,0.009123087,0.12682772,-0.0738226,0.57522094,0.1090467
-0.7138825,-0.16285565,0.7120409,0.32913822,-0.09098244,0.24773252,0.72530127,-0.02268079,0.12455022,-0.06590153,0.5750904,0.123460054
-0.7169259,-0.16203573,0.7040129,0.39298856,-0.13587269,0.22515053,0.72530127,-0.02268079,0.12455022,-0.056792647,0.5742011,0.137398
-0.7269715,-0.16536659,0.69504976,0.44089648,-0.17383039,0.20107937,0.718048,-0.04953806,0.09108555,-0.04679282,0.57266533,0.15108633
-0.7373529,-0.16692144,0.679276,0.47173667,-0.2041038,0.17333782,0.718048,-0.04953806,0.09108555,-0.036312163,0.5705054,0.1640544
-0.7358598,-0.16035691,0.6613693,0.48596653,-0.23131311,0.1490829,0.70950866,-0.07849391,0.08924961,-0.025633961,0.56782925,0.17635751
-0.7432746,-0.14340854,0.6557298,0.4967454,-0.2600104,0.13072729,0.70950866,-0.07849391,0.08924961,-0.014847547,0.564597,0.18844223
-0.7501613,-0.13259614,0.65689564,0.5149976,-0.2891137,0.123726696,0.69726956,-0.11333901,0.08156061,-0.0037204325,0.5609062,0.20063114
-0.7427735,-0.1307218,0.6581025,0.540928,-0.32274073,0.1282754,0.69726956,-0.11333901,0.08156061,0.007902876,0.5566914,0.21271348
-0.73099524,-0.13729174,0.6526828,0.562577,-0.35989517,0.13673332,0.6731317,-0.13834229,0.11030388,0.019988209,0.551975,0.22443628
-0.7155832,-0.15098953,0.65701914,0.578023,-0.39379895,0.1467087,0.6731317,-0.13834229,0.11030388,0.032368913,0.54672426,0.23694515
-0.70296085,-0.16172758,0.67800903,0.5889551,-0.42695522,0.15533635,0.6597127,-0.18083122,0.027982235,0.04498206,0.54098934,0.250942
-0.6944749,-0.15501678,0.7106495,0.60880363,-0.45845753,0.16880885,0.6597127,-0.18083122,0.027982235,0.057975024,0.5347501,0.26386237
-0.6987287,-0.12647709,0.7276139,0.6568586,-0.4939565,0.18078458,0.64363,-0.2064912,0.036205173,0.07193521,0.5279988,0.27621412
-0.6757486,-0.094546005,0.7436893,0.725741,-0.5224799,0.19891024,0.64363,-0.2064912,0.036205173,0.08725274,0.52073574,0.28962803
-0.64093643,-0.051657543,0.74829245,0.8009566,-0.55095774,0.2185098,0.6115917,-0.25490397,0.05276811,0.10408423,0.5130006,0.30395865
-0.5961467,-0.006242156,0.76295066,0.8661544,-0.58435553,0.23802114,0.6115917,-0.25490397,0.05276811,0.12218237,0.5046481,0.3179233
-0.5551374,0.03318847,0.77342844,0.90000004,-0.6173845,0.2511825,0.58376634,-0.29478836,0.06472039,0.14092326,0.49571562,0.33166838
-0.53905225,0.07003604,0.7861569,0.8978478,-0.6511119,0.25835347,0.58376634,-0.29478836,0.06472039,0.15952542,0.4861118,0.3455987
-0.54192156,0.11263025,0.82898426,0.8690346,-0.68788,0.2545175,0.5785073,-0.3505099,0.040965557,0.17744946,0.47587138,0.35914278
-0.53987,0.15998995,0.87399626,0.82722515,-0.73476607,0.2533911,0.5785073,-0.3505099,0.040965557,0.19440694,0.46482447,0.3723545
-0.51077586,0.20777439,0.89999986,0.7853165,-0.7885489,0.24527425,0.5397496,-0.38122487,0.062892675,0.21040516,0.45298332,0.38425183
-0.45729434,0.23731169,0.8947437,0.7464424,-0.8300184,0.22844607,0.5397496,-0.38122487,0.062892675,0.22544646,0.44044653,0.39621854
-0.3995057,0.26694745,0.86076665,0.7114216,-0.8668257,0.20213568,0.52101433,-0.42548287,0.022459984,0.23962268,0.42738122,0.40701365
-0.3676235,0.28955182,0.8211713,0.68594474,-0.89141643,0.16553342,0.52101433,-0.42548287,0.022459984,0.25307414,0.41390702,0.41687346
-0.3395154,0.29600632,0.74595976,0.6707085,-0.9,0.115326434,0.4884349,-0.44955802,0.08230615,0.26602638,0.4003462,0.42395592
-0.3280534,0.3130038,0.64279914,0.6575286,-0.8791158,0.059645295,0.4884349,-0.44955802,0.08230615,0.27849853,0.3870095,0.43087125
-0.32666814,0.34769836,0.56913066,0.64629424,-0.8439902,0.014769167,0.4727496,-0.4844802,0.06900442,0.29061353,0.374153,0.43581915
-0.32234043,0.36540893,0.5431061,0.64249337,-0.8160526,-0.014665037,0.4727496,-0.4844802,0.06900442,0.30252853,0.36160123,0.44069076
-0.3033738,0.36181316,0.524377,0.6441783,-0.79189956,-0.031710446,0.44046998,-0.51423347,0.017301202,0.3144241,0.34936038,0.44519854
-0.2939756,0.34027866,0.5117407,0.6402296,-0.76899505,-0.045895696,0.44046998,-0.51423347,0.017301202,0.3261618,0.33735317,0.44903898
-0.27786255,0.30934328,0.49799514,0.62845224,-0.7428961,-0.06313315,0.41867638,-0.53240156,0.08893335,0.33762765,0.32570714,0.45144296
-0.27429873,0.28475875,0.49198413,0.60500026,-0.71038824,-0.084482044,0.41867638,-0.53240156,0.08893335,0.34855437,0.31444347,0.45418715
-0.26785958,0.2704128,0.47766018,0.57137966,-0.67983806,-0.1056886,0.38810098,-0.56086713,0.09045911,0.35878524,0.30361825,0.45713282
-0.2619393,0.27232367,0.46973455,0.5349749,-0.6485327,-0.12656298,0.38810098,-0.56086713,0.09045911,0.36823583,0.29319167,0.45880866
-0.25490153,0.28340924,0.46095407,0.5015675,-0.61792326,-0.13991097,0.3847316,-0.5729773,0.068495154,0.37701517,0.28320885,0.45809484
-0.23167205,0.28559124,0.465271,0.4764047,-0.58608353,-0.14881155,0.3847316,-0.5729773,0.068495154,0.38526148,0.27357423,0.45923495
-0.2139616,0.2939412,0.4729718,0.4533549,-0.55708504,-0.15491278,0.36806875,-0.598233,0.09259093,0.3930549,0.26432613,0.46039152
-0.18835574,0.30573702,0.48009968,0.42337936,-0.52635074,-0.16151528,0.36806875,-0.598233,0.09259093,0.4002262,0.2554214,0.4612639
-0.1765407,0.31962812,0.4735303,0.38568544,-0.49340254,-0.17080407,0.353265,-0.61280245,0.08012712,0.406654,0.24697125,0.46151423
-0.16781138,0.33445996,0.45470345,0.34315705,-0.4538412,-0.18144508,0.353265,-0.61280245,0.08012712,0.41221303,0.23898458,0.46208
-0.15727246,0.34793538,0.41474986,0.30180672,-0.40575564,-0.19645071,0.33026218,-0.6116376,0.10994649,0.41695735,0.23165788,0.4619944
-0.15243973,0.3617179,0.36649263,0.2660002,-0.35398,-0.21714452,0.33026218,-0.6116376,0.10994649,0.4209689,0.22498898,0.46209598
-0.14257473,0.37917274,0.3313707,0.22849368,-0.29851568,-0.23851857,0.3233198,-0.6267298,0.082250714,0.42424437,0.21909975,0.46166062
-0.12636143,0.39229503,0.30325377,0.19146058,-0.24457026,-0.26203686,0.3233198,-0.6267298,0.082250714,0.4267664,0.21391255,0.46120048
-0.10759292,0.40066883,0.27931273,0.15500447,-0.19608745,-0.28127402,0.31149775,-0.62891996,0.1023314,0.42857617,0.20941438,0.46057534
-0.102900505,0.40341455,0.25558794,0.12981299,-0.14887315,-0.29812804,0.31149775,-0.62891996,0.1023314,0.42987117,0.20550957,0.4597268
-0.106230676,0.40314734,0.22286427,0.12175879,-0.10771027,-0.30242163,0.29797274,-0.632399,0.069181085,0.431021,0.2021303,0.4589188
-0.09622471,0.39129,0.21819437,0.1296402,-0.07806277,-0.29388538,0.29797274,-0.632399,0.069181085,0.43231454,0.1990061,0.45845985
-0.08145733,0.37040836,0.19434118,0.14195138,-0.0522729,-0.28344533,0.2933064,-0.6376159,0.089785576,0.4338666,0.19614977,0.45853758
-0.07403515,0.3515653,0.15631068,0.15122706,-0.030429736,-0.27180687,0.2933064,-0.6376159,0.089785576,0.43558812,0.19344331,0.45875216
-0.06577852,0.33820537,0.11090708,0.15430468,-0.0070506036,-0.26160312,0.29408038,-0.63815534,0.068620324,0.43738165,0.19098188,0.45860028
-0.05150226,0.3320474,0.054821372,0.14906666,0.017541736,-0.25523597,0.29408038,-0.63815534,0.068620324,0.43905523,0.18872356,0.45937347
-0.04899919,0.32844293,0.011455178,0.13950714,0.05136025,-0.24985829,0.2862873,-0.6406739,0.078441024,0.44054782,0.18684903,0.4603331
-0.03829653,0.33050174,-0.0033929348,0.1241394,0.073046185,-0.25451112,0.2862873,-0.6406739,0.078441024,0.44172052,0.18521076,0.4613657
-0.024364613,0.34610975,-0.053744435,0.10517253,0.102308676,-0.25779074,0.2965684,-0.6463978,0.08974862,0.44252616,0.18395439,0.46214795
-0.00894431,0.36506104,-0.06559515,0.083683975,0.13119109,-0.26375407,0.2965684,-0.6463978,0.08974862,0.44289044,0.18302304,0.4632454
-0.0052505955,0.39059103,-0.0658474,0.06207691,0.15028799,-0.26383686,0.2928015,-0.6492458,0.08930707,0.44283527,0.18233842,0.4644146
-0.014192209,0.40234938,-0.024255753,0.045636192,0.15348926,-0.26628113,0.2928015,-0.6492458,0.08930707,0.4424398,0.181673,0.4655602
-0.012098253,0.40486664,-0.018810868,0.034803297,0.13507904,-0.27339733,0.2910987,-0.6505347,0.03607583,0.44184372,0.18087313,0.46613002
-0.006932482,0.4008853,-0.012801647,0.030905455,0.11875582,-0.28814307,0.2910987,-0.6505347,0.03607583,0.44116163,0.17994133,0.46664906
-0.00093961507,0.39924243,-0.0139507055,0.024182957,0.089804344,-0.3106219,0.27660453,-0.65333915,0.029380798,0.4403667,0.17883758,0.46684837
0.0039126873,0.3962036,-0.019440651,0.014202181,0.05505082,-0.3378195,0.27660453,-0.65333915,0.029380798,0.43936974,0.17746806,0.46601367
-0.0014760345,0.3956648,-0.025636315,0.0009167567,0.018438548,-0.36800176,0.28622872,-0.64662343,0.07291055,0.4381338,0.17588224,0.4642942
-0.001804173,0.3909312,-0.041730285,-0.01594545,-0.017002642,-0.39930186,0.28622872,-0.64662343,0.07291055,0.4365626,0.17404065,0.46181846
0.008178875,0.38191557,-0.06677747,-0.0334751,-0.042750403,-0.43025357,0.27198696,-0.6436146,0.06645584,0.43467078,0.17210095,0.4588623
-9.307265e-05,0.39849463,0.00017499924,-0.05359558,-0.09669438,-0.4451633,0.27198696,-0.6436146,0.06645584,0.43237755,0.16960166,0.4550557
-0.021845326,0.39005557,0.05327809,-0.07041204,-0.2078174,-0.44196558,0.26025414,-0.6333651,0.0021572113,0.4297767,0.16584432,0.45069122
-0.052451015,0.3603128,0.021297097,-0.07857899,-0.31978387,-0.4367296,0.26025414,-0.6333651,0.0021572113,0.4270166,0.16075146,0.44611287
-0.05824821,0.32711428,-0.04241538,-0.086604685,-0.36878383,-0.43536562,0.25590706,-0.63580877,0.017588615,0.42412648,0.15510668,0.44170952
-0.04568872,0.2945677,-0.08921361,-0.09645502,-0.35483712,-0.43459845,0.25590706,-0.63580877,0.017588615,0.42103714,0.14957903,0.43706942
-0.020644903,0.26614222,-0.08661628,-0.111376405,-0.3022572,-0.41071612,0.250602,-0.61310405,-0.0085526705,0.4176529,0.14453816,0.43282962
0.018788084,0.18064752,-0.033764362,-0.10664219,-0.27281153,-0.31544733,0.250602,-0.61310405,-0.0085526705,0.41428933,0.139301,0.43116546
-0.07592751,0.115609676,0.046316266,-0.08818254,-0.23266739,-0.30084458,0.2545948,-0.6164759,-0.019283175,0.4112915,0.13446766,0.42996693
-0.081783414,0.14552698,0.13006818,-0.11012365,-0.18012223,-0.38490608,0.2545948,-0.6164759,-0.019283175,0.40790653,0.13062756,0.42721605
-0.009486914,0.23620619,0.15063488,-0.16596979,-0.16478348,-0.418781,0.23862648,-0.59676653,-0.05709946,0.40344846,0.1271461,0.42367315
0.034036398,0.2992338,0.1156044,-0.22841865,-0.18666926,-0.39159968,0.23862648,-0.59676653,-0.05709946,0.39772084,0.12324004,0.4208002
0.02896306,0.32397503,0.110265255,-0.28558332,-0.2131517,-0.35737985,0.23977977,-0.58858216,-0.07790935,0.39084005,0.11887657,0.41859555
0.022965044,0.32365313,0.15433335,-0.31409928,-0.25409913,-0.34588724,0.23977977,-0.58858216,-0.07790935,0.38338006,0.11395062,0.41655254
0.009307601,0.32845566,0.15966308,-0.31955814,-0.2855441,-0.35277128,0.23557788,-0.57263327,-0.14133918,0.37583572,0.10870341,0.4141302
-0.0063754544,0.3538156,0.15241301,-0.31034526,-0.29221994,-0.36016804,0.23557788,-0.57263327,-0.14133918,0.3684783,0.10336968,0.4117484
-0.03473644,0.3794794,0.15771282,-0.2795925,-0.27699286,-0.36487693,0.20804816,-0.55829275,-0.16977239,0.36175013,0.09823845,0.40957403
-0.05296324,0.41482565,0.14113748,-0.23055822,-0.2415835,-0.36786193,0.20804816,-0.55829275,-0.16977239,0.35599002,0.09349261,0.40728664
-0.04356952,0.45306572,0.08846533,-0.16722384,-0.18950316,-0.3653954,0.2049787,-0.54964375,-0.17502785,0.35149407,0.0893545,0.40533376
-0.046278432,0.47573206,0.02871263,-0.10185073,-0.1283828,-0.3597515,0.2049787,-0.54964375,-0.17502785,0.3482739,0.08587353,0.40363264
-0.042508774,0.48205826,-0.017900586,-0.04901413,-0.053900465,-0.35535344,0.21340352,-0.5325836,-0.18425286,0.34610164,0.08326517,0.40181208
-0.042467065,0.47642377,-0.026466608,-0.009353168,0.018383697,-0.35246554,0.21340352,-0.5325836,-0.18425286,0.34469092,0.0814567,0.40073228
-0.06669973,0.4675864,-0.022524834,0.023486365,0.07790588,-0.34870666,0.20969522,-0.529481,-0.17916179,0.3439337,0.080351196,0.39986777
-0.091683425,0.45703968,0.029049277,0.047523834,0.113881916,-0.34343505,0.20969522,-0.529481,-0.17916179,0.34362704,0.07961896,0.39927506
-0.08750427,0.43161908,0.07407069,0.07971273,0.15049174,-0.34319904,0.20862001,-0.54970294,-0.1747073,0.34397155,0.079334214,0.39938498
-0.06998923,0.41104367,0.14186442,0.13176721,0.2362221,-0.345136,0.20862001,-0.54970294,-0.1747073,0.34532344,0.0800315,0.39911628
-0.021957718,0.39048007,0.28371978,0.20225644,0.35073203,-0.33641884,0.20580149,-0.5352384,-0.17972243,0.34806293,0.0820573,0.39892578
0.0036240667,0.37409425,0.4125656,0.26707745,0.43165362,-0.32390046,0.20580149,-0.5352384,-0.17972243,0.352045,0.08494538,0.39973164
-0.0023346841,0.36005726,0.48694015,0.30663347,0.46521205,-0.316176,0.20784461,-0.5491635,-0.15353811,0.35681635,0.08821504,0.4009831
-0.011925742,0.35645258,0.54814434,0.31587556,0.4542726,-0.3225129,0.20784461,-0.5491635,-0.15353811,0.36176533,0.091352485,0.40193105
-0.017573997,0.37226912,0.58705735,0.30101526,0.40414652,-0.33923283,0.21845764,-0.56110835,-0.15834367,0.36646566,0.094001174,0.40221047
0.021187127,0.42912,0.59964395,0.26448172,0.31629342,-0.3526786,0.21845764,-0.56110835,-0.15834367,0.3704536,0.09566117,0.40206957
0.08392307,0.5191511,0.591903,0.22519265,0.21182469,-0.3569598,0.21801132,-0.56678987,-0.15329158,0.37370068,0.09616001,0.40142035
0.1095203,0.5763596,0.6026931,0.20568961,0.11414004,-0.34940156,0.21801132,-0.56678987,-0.15329158,0.37655082,0.0954746,0.4006648
0.12347217,0.5973443,0.6376581,0.21367295,0.04156886,-0.3409481,0.21711177,-0.56915873,-0.13224149,0.37958393,0.09394329,0.3997624
0.062024444,0.5658284,0.7179508,0.23324151,0.0028945655,-0.34063125,0.21711177,-0.56915873,-0.13224149,0.3829964,0.091942325,0.3987944
0.019054428,0.5100787,0.7497914,0.25054264,-0.02364175,-0.3578034,0.20983887,-0.57803446,-0.14382827,0.38680318,0.089741826,0.39733982
0.07086873,0.45851886,0.6972258,0.2596277,-0.008855477,-0.41819948,0.20983887,-0.57803446,-0.14382827,0.39084795,0.087969266,0.39460254
0.07615563,0.4677729,0.6841686,0.25781387,0.008798987,-0.45810908,0.20836622,-0.58899206,-0.11784518,0.39492834,0.08661957,0.3913083
0.11785364,0.47709373,0.6715131,0.25649688,0.029958397,-0.46312594,0.20836622,-0.58899206,-0.11784518,0.39896625,0.08552704,0.38771486
0.08979429,0.4927691,0.6763668,0.24408633,0.039486766,-0.44289166,0.20720446,-0.5881834,-0.08609331,0.40275055,0.08448267,0.38460326
0.049698353,0.48302495,0.7213197,0.23966083,0.043898314,-0.42525613,0.20720446,-0.5881834,-0.08609331,0.40640324,0.08338916,0.38188004
0.007082589,0.46674478,0.70650434,0.2453427,0.03435719,-0.41750777,0.20995325,-0.5996045,-0.07566464,0.41018388,0.08218081,0.3794093
0.028716803,0.45062616,0.63665843,0.2688638,0.03167315,-0.41935807,0.20995325,-0.5996045,-0.07566464,0.41441783,0.08093793,0.37675166
0.044415176,0.4295875,0.57740736,0.2971959,0.019023359,-0.41252947,0.22080892,-0.59673977,-0.06929016,0.41923267,0.07955432,0.3736472
0.035753682,0.41065684,0.48810935,0.32105872,0.0078027546,-0.39843082,0.22080892,-0.59673977,-0.06929016,0.42448923,0.077953815,0.37132478
0.040590152,0.36726722,0.41615808,0.33611774,-0.0023491085,-0.38753602,0.20912063,-0.60501677,-0.060028076,0.43005615,0.07621507,0.36922264
0.052159175,0.34917563,0.33538032,0.33264968,-0.02246429,-0.37838513,0.20912063,-0.60501677,-0.060028076,0.4355299,0.07418586,0.36717343
0.026410565,0.3450145,0.27069986,0.32611632,-0.04438238,-0.3777781,0.20426881,-0.6190927,-0.0450691,0.44090167,0.071939036,0.36517668
0.026584357,0.35735637,0.22662687,0.3222221,-0.03354627,-0.36350846,0.20426881,-0.6190927,-0.0450691,0.44615597,0.069720715,0.36336422
0.0031879246,0.35068017,0.16441905,0.31986934,-0.0012470931,-0.36645335,0.1969276,-0.62492603,-0.05124247,0.45137838,0.06791642,0.36151075
0.016134143,0.38975894,0.12913072,0.32311273,0.06354475,-0.35729292,0.1969276,-0.62492603,-0.05124247,0.45661414,0.06676935,0.3602643
-0.032720618,0.41613203,0.13684821,0.33381668,0.15148896,-0.34428918,0.18829912,-0.6328569,-0.025783062,0.46203256,0.06655848,0.35981894
-0.0680746,0.43762255,0.13870847,0.33951408,0.26881272,-0.32168552,0.18829912,-0.6328569,-0.025783062,0.46747172,0.06749916,0.3603394
-0.07330756,0.43631747,0.21561503,0.34274384,0.37108082,-0.30893975,0.20906073,-0.644441,-0.0084581375,0.47293788,0.06952402,0.36137915
-0.047477193,0.45335552,0.2630074,0.348407,0.46377942,-0.29549396,0.20906073,-0.644441,-0.0084581375,0.478448,0.072461024,0.36347842
-0.05448691,0.46490017,0.30361784,0.35150996,0.5428065,-0.28960323,0.20083803,-0.6706294,-0.015467405,0.48400408,0.07624921,0.36643744
-0.119730175,0.47441447,0.33605754,0.3248493,0.60937774,-0.28566825,0.20083803,-0.6706294,-0.015467405,0.48898646,0.080711536,0.3695662
-0.04242664,0.44227773,0.26823437,0.29245126,0.68649024,-0.30199203,0.23869199,-0.66675603,0.05169201,0.49334142,0.08615004,0.3722551
0.005193189,0.48383072,0.35427094,0.26393107,0.78593767,-0.32520333,0.23869199,-0.66675603,0.05169201,0.497116,0.092800535,0.3755703
-0.054602,0.51038575,0.41513896,0.22996537,0.78849435,-0.3568843,0.2404046,-0.6744613,0.09399152,0.50027645,0.099709585,0.37846875
-0.05901777,0.5478109,0.4072163,0.20716003,0.80538964,-0.37834468,0.2404046,-0.6744613,0.09399152,0.5029917,0.10692012,0.38083577
-0.11680641,0.53106797,0.446535,0.20186304,0.8412535,-0.40815657,0.26041162,-0.6700195,0.05349922,0.50564563,0.11475599,0.38211274
-0.08825001,0.5425621,0.58154225,0.21657932,0.8341389,-0.4581231,0.26041162,-0.6700195,0.05349922,0.5086307,0.12282817,0.3830297
-0.04234644,0.584195,0.6860504,0.23749807,0.7657779,-0.51075333,0.28103805,-0.6755178,0.081648946,0.5121107,0.13054872,0.3823805
0.017465621,0.6285258,0.7885692,0.25640345,0.66645,-0.5369401,0.28103805,-0.6755178,0.081648946,0.5159879,0.13734567,0.38077307
0.04235263,0.66313004,0.8131244,0.27918777,0.54217273,-0.5359471,0.28523993,-0.6914667,0.1450808,0.5203533,0.14280835,0.37923074
0.049042583,0.6717525,0.8030391,0.30131757,0.41426116,-0.50176454,0.28523993,-0.6914667,0.1450808,0.52513754,0.14661784,0.37695384
0.050729737,0.638822,0.7715366,0.32495528,0.2790503,-0.4605183,0.28829968,-0.6911216,0.16127813,0.5304037,0.14869036,0.37474084
0.034157157,0.59595287,0.67017317,0.34099472,0.16402121,-0.42701983,0.28829968,-0.6911216,0.16127813,0.53597146,0.149253,0.3725469
0.00447692,0.5504442,0.56244755,0.3419411,0.08170812,-0.40651548,0.2838258,-0.6964736,0.1765945,0.5415759,0.14880711,0.3702941
-0.023558244,0.5106204,0.4175688,0.32829544,0.036046,-0.39363915,0.2838258,-0.6964736,0.1765945,0.54689443,0.1477584,0.3679955
-0.048831582,0.48497713,0.29463696,0.2984159,0.029514164,-0.3794832,0.28044528,-0.699593,0.16556823,0.55162597,0.14656503,0.36570764
-0.06647252,0.47245127,0.20950556,0.26124895,0.047247976,-0.36297345,0.28044528,-0.699593,0.16556823,0.5555903,0.14541385,0.36409068
-0.08162623,0.4560674,0.16363788,0.22591946,0.07520126,-0.34586433,0.28592616,-0.70444804,0.20830941,0.5588492,0.1444537,0.3630519
-0.095727675,0.44983074,0.12796187,0.19397864,0.10186199,-0.33025107,0.28592616,-0.70444804,0.20830941,0.561443,0.14363134,0.36244178
-0.11146995,0.44601166,0.1081028,0.16870543,0.13088252,-0.31724542,0.27832407,-0.70710284,0.21283972,0.56353223,0.14303817,0.36232972
-0.11175419,0.4484083,0.116212964,0.1554232,0.14713962,-0.3066681,0.27832407,-0.70710284,0.21283972,0.56533355,0.14250788,0.36248803
-0.12037513,0.45166636,0.124198556,0.1467722,0.15646864,-0.3020933,0.2865746,-0.7078958,0.18702102,0.5669694,0.1420664,0.36239243
-0.1328987,0.4602556,0.1261189,0.1426833,0.15510753,-0.29461628,0.2865746,-0.7078958,0.18702102,0.5685072,0.14152142,0.36284423
-0.13107842,0.46599722,0.11722648,0.13811675,0.1462394,-0.28660518,0.2815205,-0.7128435,0.21821427,0.5699624,0.14084062,0.3635769
-0.14520627,0.4719032,0.087797046,0.13094807,0.12635344,-0.28514978,0.2815205,-0.7128435,0.21821427,0.57126606,0.13991179,0.3640263
-0.17959926,0.44582736,0.03205967,0.13006297,0.101945736,-0.2946873,0.27768534,-0.71264917,0.22318411,0.5725748,0.1388298,0.36409783
-0.17406635,0.45835063,-0.017276525,0.13560528,0.07996006,-0.31232572,0.27768534,-0.71264917,0.22318411,0.5740001,0.13763478,0.36368656
-0.16925974,0.45507705,-0.06367934,0.14149883,0.063350305,-0.31669223,0.27589327,-0.72638106,0.2543404,0.57556117,0.1363266,0.36349702
-0.16988075,0.4531113,-0.0769465,0.14633285,0.040293947,-0.3148935,0.27589327,-0.72638106,0.2543404,0.57721233,0.13473563,0.36276126
-0.1722045,0.43664244,-0.102244616,0.15625723,0.016631708,-0.31393683,0.2708392,-0.7242969,0.10014439,0.57907593,0.13292372,0.36072373
-0.1885339,0.41410968,-0.17508864,0.15942019,0.0047391206,-0.3229161,0.2708392,-0.7242969,0.10014439,0.5810045,0.13102853,0.35957694
-0.18608105,0.41546643,-0.2399255,0.1471656,0.013346687,-0.34084874,0.2689314,-0.72348946,0.24852443,0.5827122,0.12940243,0.35905004
-0.20591405,0.4330577,-0.22824538,0.12931022,0.02293089,-0.35647923,0.2689314,-0.72348946,0.24852443,0.5840642,0.12798709,0.35734653
-0.22140864,0.46529642,-0.21708262,0.109951854,0.040771008,-0.36851004,0.2734136,-0.7271305,0.2222662,0.58504534,0.1268957,0.35539865
-0.24535604,0.5376153,-0.28862178,0.087400965,0.06943595,-0.35589132,0.2734136,-0.7271305,0.2222662,0.58555096,0.12596661,0.35402226
-0.17162237,0.58856815,-0.23019886,0.06770282,0.10565835,-0.33269435,0.25839514,-0.723581,0.23697662,0.58564615,0.12525126,0.3536837
-0.06356613,0.6743617,-0.124803424,0.071338326,0.1301782,-0.31833395,0.25839514,-0.723581,0.23697662,0.58578503,0.12463955,0.35347557
0.003711991,0.73008543,-0.040593863,0.09414368,0.13700882,-0.32916954,0.26503766,-0.7292458,0.24796379,0.5863972,0.12422402,0.35326052
0.028617948,0.77252156,0.0371629,0.11292225,0.16076851,-0.35633686,0.26503766,-0.7292458,0.24796379,0.58738756,0.124258615,0.35250258
0.018146604,0.83597755,0.094898105,0.12369579,0.19720985,-0.3952452,0.2734722,-0.7211798,0.2277968,0.5886264,0.12504628,0.35042834
-0.044892505,0.8564193,0.22656083,0.12679449,0.24691176,-0.40540278,0.2734722,-0.7211798,0.2277968,0.5899081,0.12640673,0.34928894
-0.064850494,0.848679,0.48516,0.16158527,0.25689173,-0.40610182,0.2768528,-0.7180615,0.23882294,0.59189475,0.1279133,0.347929
-0.09129401,0.84439355,0.5631833,0.21295232,0.24436976,-0.3932076,0.2768528,-0.7180615,0.23882294,0.59488297,0.12914579,0.34702277
-0.18110749,0.81225187,0.4345038,0.23209026,0.2447797,-0.36181614,0.2650962,-0.72329515,0.2534964,0.5982442,0.13014226,0.34709883
-0.20561215,0.79154927,0.5277488,0.24643418,0.2676093,-0.32916158,0.2650962,-0.72329515,0.2534964,0.6018441,0.13105798,0.3476386
-0.23635843,0.7818044,0.3938285,0.25426793,0.29915273,-0.2945822,0.2557606,-0.73373,0.2947117,0.60558367,0.13202277,0.34989357
-0.22500257,0.7520555,0.32417762,0.21884502,0.34613484,-0.24196154,0.2557606,-0.73373,0.2947117,0.6085495,0.13296807,0.3527279
-0.16751413,0.7184642,0.36088622,0.18787676,0.35546583,-0.19712587,0.26259702,-0.7395299,0.3004086,0.61088103,0.13363752,0.3562708
-0.0732701,0.54186666,0.22215188,0.18043087,0.34776634,-0.18252277,0.26259702,-0.7395299,0.3004086,0.6130401,0.13404956,0.36029148
-0.021337867,0.45632038,0.15339184,0.20705599,0.35374814,-0.19841821,0.26483256,-0.7535901,0.32130063,0.61575687,0.13469344,0.36423182
-0.049893748,0.45392618,0.05181694,0.21583506,0.34860533,-0.20431785,0.26483256,-0.7535901,0.32130063,0.6186388,0.13529307,0.36783504
-0.035905592,0.4179319,0.0012286901,0.1964799,0.3716867,-0.20934299,0.27901018,-0.75355774,0.33316875,0.621148,0.13620603,0.3708434
0.02354306,0.4363516,0.023298502,0.18438552,0.39189884,-0.21836838,0.27901018,-0.75355774,0.33316875,0.62340456,0.13736138,0.37449813
0.047853872,0.4624469,0.046440125,0.15069216,0.40070036,-0.21611235,0.260427,-0.76198566,0.3312055,0.62500226,0.13861257,0.37849402
0.05729185,0.49594417,0.1267637,0.11498161,0.39318407,-0.21114933,0.260427,-0.76198566,0.3312055,0.62587464,0.13970307,0.3823037
0.043281555,0.51223975,0.183604,0.08729267,0.3685922,-0.20542422,0.28974873,-0.7625954,0.32848227,0.6262116,0.14052492,0.38518453
-0.0020299777,0.5358115,0.16943395,0.06462498,0.34451807,-0.19995832,0.28974873,-0.7625954,0.32848227,0.62608826,0.14101154,0.3888483
-0.005361825,0.53501964,0.22380388,0.036395416,0.3263361,-0.19374308,0.2671365,-0.7706938,0.33678114,0.6254163,0.1412858,0.39299703
-0.024020903,0.5597242,0.2133596,0.029619932,0.29383755,-0.2057102,0.2671365,-0.7706938,0.33678114,0.6246122,0.14131147,0.3961692
-0.04921443,0.5973282,0.2290163,0.010244768,0.27620268,-0.22185627,0.27064252,-0.7646672,0.34792447,0.62344813,0.14134228,0.39873314
-0.07066636,0.63950044,0.28317356,-0.0009849295,0.24205844,-0.24367681,0.27064252,-0.7646672,0.34792447,0.62207043,0.14119501,0.4007802
-0.08636988,0.6754708,0.28562415,-0.009107418,0.19986108,-0.26175663,0.27115577,-0.76202804,0.33746088,0.620564,0.14081812,0.4019301
-0.06981248,0.69160795,0.35797608,-0.0064399913,0.14487189,-0.27795875,0.27115577,-0.76202804,0.33746088,0.6191224,0.13999383,0.40258956
-0.045648426,0.6908644,0.3003769,0.017104287,0.076614305,-0.29680702,0.26388288,-0.7709038,0.32587624,0.6181911,0.13867301,0.40261793
-0.03939166,0.6980306,0.28218246,0.028855685,0.04292509,-0.31046456,0.26388288,-0.7709038,0.32587624,0.6174995,0.13709947,0.40189338
-0.06446327,0.70359355,0.27449358,0.018553853,0.033479497,-0.3153193,0.24951285,-0.770801,0.31929827,0.6166214,0.13550374,0.401263
-0.068664186,0.69564,0.27299488,-0.0055093616,0.043873817,-0.31421232,0.24951285,-0.770801,0.31929827,0.6152482,0.13397282,0.40047574
-0.06239326,0.6863506,0.2423166,-0.03946931,0.06269938,-0.30654454,0.25685406,-0.7649687,0.32547164,0.61320055,0.13259843,0.3998406
-0.046456218,0.6678804,0.24157858,-0.07235713,0.06599909,-0.29785192,0.25685406,-0.7649687,0.32547164,0.6104778,0.13114503,0.3995452
-0.063159086,0.65327084,0.22932076,-0.09713332,0.06038022,-0.29835096,0.25072473,-0.756666,0.30401886,0.6072757,0.129671,0.3990147
-0.054796,0.6140395,0.22511172,-0.107200906,0.057283282,-0.30074713,0.25072473,-0.756666,0.30401886,0.603863,0.12815139,0.39861274
-0.051963504,0.5839323,0.20787609,-0.10999386,0.058637068,-0.30537194,0.26613098,-0.7604845,0.27872372,0.6004103,0.12671989,0.39784074
-0.05652513,0.5726255,0.19123304,-0.09929161,0.08025246,-0.31898522,0.26613098,-0.7604845,0.27872372,0.5971632,0.125597,0.39725447
-0.029504634,0.5582059,0.16824877,-0.092953354,0.10650618,-0.32797718,0.23886216,-0.74932253,0.23958695,0.5940547,0.12485715,0.3967204
-0.013483278,0.5507467,0.16255891,-0.089780405,0.1376328,-0.3455331,0.23886216,-0.74932253,0.23958695,0.59100246,0.12456043,0.3960166
-0.03162151,0.5656005,0.15844166,-0.08830169,0.16796793,-0.36418712,0.23847443,-0.7490523,0.25017154,0.5879989,0.12477046,0.39551663
-0.058004133,0.5817505,0.17067575,-0.09510121,0.19609118,-0.36549318,0.23847443,-0.7490523,0.25017154,0.5848403,0.12525351,0.39481926
-0.09474339,0.5963296,0.1795913,-0.09725204,0.22008598,-0.36731195,0.24613506,-0.74044687,0.2511717,0.5816456,0.12603533,0.3941772
-0.15538795,0.62428087,0.13820279,-0.0942027,0.24075314,-0.3759361,0.24613506,-0.74044687,0.2511717,0.57850075,0.12707254,0.393569
-0.27558452,0.6952835,0.08289993,-0.08231449,0.27688837,-0.39164904,0.24631917,-0.7315879,0.25682342,0.5756086,0.12865481,0.39296103
-0.35272238,0.76573884,0.1526618,-0.087996155,0.3163081,-0.40375724,0.24631917,-0.7315879,0.25682342,0.5725889,0.13071844,0.3922894
-0.3301021,0.7263465,0.23519707,-0.11873464,0.34893352,-0.40035123,0.27034557,-0.71848255,0.21701086,0.56895846,0.13314101,0.39070702
-0.23589112,0.6394591,0.20901382,-0.12838669,0.3601776,-0.3905433,0.27034557,-0.71848255,0.21701086,0.5651129,0.13555758,0.39057088
-0.14239064,0.5740391,0.16141796,-0.11983825,0.352699,-0.38928473,0.25187808,-0.71500796,0.22610867,0.56145465,0.13791788,0.3912208
-0.09578779,0.5519757,0.20390964,-0.11646189,0.32939237,-0.39314649,0.25187808,-0.71500796,0.22610867,0.5578557,0.14002617,0.3908069
-0.074771374,0.5553124,0.304937,-0.124497145,0.3005555,-0.40107158,0.25731146,-0.7013354,0.19527471,0.55412203,0.14192939,0.38953185
-0.017275982,0.54890645,0.40676785,-0.12475246,0.26550615,-0.4133145,0.25731146,-0.7013354,0.19527471,0.5503838,0.14351,0.38827753
0.003329277,0.5300154,0.42258263,-0.116200194,0.23632152,-0.4230259,0.2750705,-0.7073139,0.2019347,0.54684174,0.14488587,0.3868773
0.010315053,0.5238834,0.407161,-0.10591538,0.22951639,-0.43254176,0.2750705,-0.7073139,0.2019347,0.5434964,0.14622027,0.38498926
0.017976165,0.53783643,0.39155638,-0.10789493,0.22780065,-0.4325618,0.26958126,-0.6934637,0.17013562,0.54012424,0.14756885,0.3828442
0.02110359,0.5332216,0.36477923,-0.12537055,0.22526062,-0.42073482,0.26958126,-0.6934637,0.17013562,0.5363827,0.14875486,0.38115907
0.006089933,0.5142151,0.3273574,-0.15152012,0.22957762,-0.409183,0.27998084,-0.68728626,0.19250631,0.53212535,0.14992942,0.37992573
-0.006547056,0.493714,0.29425085,-0.17682207,0.24140604,-0.4093951,0.27998084,-0.68728626,0.19250631,0.52734756,0.15119216,0.37855673
-0.01934883,0.48296976,0.26467538,-0.19504425,0.26262668,-0.41067058,0.2763605,-0.6717417,0.11319947,0.52221525,0.15272787,0.3765905
-0.04036834,0.48341972,0.23676968,-0.21021819,0.2883754,-0.41745108,0.2763605,-0.6717417,0.11319947,0.51676726,0.15454733,0.37531018
-0.069761366,0.49662536,0.2186873,-0.2178213,0.32213956,-0.42403767,0.28272265,-0.65624076,0.15677643,0.51117873,0.1568103,0.37429833
-0.11147612,0.5244571,0.22912014,-0.22351381,0.35898548,-0.4333567,0.28272265,-0.65624076,0.15677643,0.5054618,0.15950142,0.37305617
-0.14320384,0.5647948,0.25524974,-0.22409934,0.3844222,-0.44422543,0.2988277,-0.6485634,0.1266675,0.4997471,0.16257757,0.37146282
-0.14209996,0.59530836,0.24639833,-0.20483908,0.3845917,-0.4566282,0.2988277,-0.6485634,0.1266675,0.49440688,0.16569565,0.36982942
-0.1431172,0.58594453,0.27519393,-0.19392979,0.38319772,-0.45071805,0.31102914,-0.6376483,0.10694194,0.48929366,0.16878836,0.36801195
-0.12623514,0.5678466,0.263749,-0.17799799,0.38382465,-0.43601593,0.31102914,-0.6376483,0.10694194,0.48447654,0.17174575,0.36676288
-0.106848076,0.56293136,0.26977158,-0.150468,0.39480183,-0.4236227,0.31166923,-0.63210195,0.096595645,0.48021674,0.17477393,0.3660617
-0.07770466,0.5743929,0.31377578,-0.120669946,0.39631185,-0.4141409,0.31166923,-0.63210195,0.096595645,0.47653127,0.1777191,0.3653028
-0.047894664,0.57917166,0.3661852,-0.085822135,0.37685984,-0.4069174,0.3266111,-0.6236149,0.09823847,0.47355422,0.18043672,0.3643477
-0.04014589,0.578667,0.3964349,-0.049230084,0.3550064,-0.39794898,0.3266111,-0.6236149,0.09823847,0.47128928,0.18281516,0.3636968
-0.04119815,0.58025455,0.40875983,-0.014075041,0.333392,-0.38704747,0.33095956,-0.62117004,0.08280313,0.46973944,0.18491903,0.36305308
-0.06579681,0.5820167,0.4396404,0.013142616,0.3180302,-0.3738399,0.33095956,-0.62117004,0.08280313,0.4687132,0.18673238,0.36271715
-0.0738127,0.57812285,0.45364726,0.03017674,0.31031013,-0.35447097,0.33063036,-0.61495024,0.09891832,0.46804002,0.18837361,0.36274767
-0.07718304,0.56024027,0.47680438,0.037795827,0.30108005,-0.3359227,0.33063036,-0.61495024,0.09891832,0.4674987,0.18976158,0.36312747
-0.07105152,0.5212834,0.491722,0.043710463,0.29609987,-0.3215629,0.33792144,-0.6240627,0.08861911,0.46709117,0.1910387,0.3639269
-0.07566039,0.48521584,0.5082092,0.046360865,0.2870569,-0.3159381,0.33792144,-0.6240627,0.08861911,0.46671858,0.19214647,0.3646598
-0.08212339,0.4569925,0.5190451,0.039880704,0.27736494,-0.31658426,0.32992327,-0.61745316,0.11467612,0.4662352,0.19318339,0.365515
-0.091073364,0.43108436,0.5420897,0.02674485,0.2621129,-0.32377213,0.32992327,-0.61745316,0.11467612,0.46547413,0.19406164,0.36595583
-0.09639644,0.40640596,0.5395212,0.0076798946,0.23994058,-0.334216,0.32622337,-0.6233446,0.10882318,0.46435222,0.19478849,0.36646295
-0.10102269,0.39251268,0.52158225,-0.0118327215,0.22012907,-0.34571528,0.32622337,-0.6233446,0.10882318,0.4628261,0.19533281,0.3662274
-0.10614095,0.37599194,0.5023898,-0.033333614,0.20540747,-0.35779226,0.32815075,-0.61569965,0.06684601,0.460888,0.19582164,0.36519408
-0.11098411,0.37136588,0.4716481,-0.05571769,0.19243783,-0.3707941,0.32815075,-0.61569965,0.06684601,0.4584902,0.19620673,0.36428642
-0.12037706,0.38185993,0.42676926,-0.07476434,0.18072794,-0.38498604,0.3407399,-0.60505366,0.036533713,0.4557279,0.19658121,0.362211
-0.1410235,0.39159572,0.38878655,-0.092958674,0.17532751,-0.39708978,0.3407399,-0.60505366,0.036533713,0.45259032,0.19692568,0.36065745
-0.13992786,0.4017326,0.36706328,-0.11077066,0.1767337,-0.40362793,0.32130605,-0.60090566,0.0720911,0.4491138,0.19734809,0.35993528
-0.13369478,0.40153933,0.33859813,-0.1121698,0.18059765,-0.40559703,0.32130605,-0.60090566,0.0720911,0.44559327,0.19779113,0.35822058
-0.12598681,0.40605295,0.33509457,-0.10864812,0.18290995,-0.40448588,0.3371488,-0.5900497,0.052685976,0.4421558,0.19828431,0.35608292
-0.1062151,0.40947366,0.32262647,-0.09660354,0.1772803,-0.4017407,0.3371488,-0.5900497,0.052685976,0.43894458,0.19865695,0.35443163
-0.106151894,0.41553608,0.31112385,-0.08133429,0.17831327,-0.39996362,0.32999164,-0.587023,0.052164316,0.43605173,0.19905806,0.3532133
-0.113680534,0.4316118,0.3021655,-0.06683867,0.17992125,-0.39820537,0.32999164,-0.587023,0.052164316,0.43343282,0.1994318,0.35164666
-0.13501841,0.44445115,0.31754625,-0.05686917,0.18934138,-0.39639232,0.34602833,-0.5763022,0.027466774,0.431025,0.19993597,0.34941435
-0.14141819,0.450329,0.32765305,-0.048528172,0.1953364,-0.39312738,0.34602833,-0.5763022,0.027466774,0.4287698,0.2004495,0.34802198
-0.14724834,0.45070225,0.33742177,-0.03851059,0.1980763,-0.3908621,0.3453129,-0.5698121,0.054166555,0.42672825,0.20101231,0.34678102
-0.15067366,0.44703606,0.34622848,-0.028056413,0.19957162,-0.39199775,0.3453129,-0.5698121,0.054166555,0.4248803,0.20156243,0.34542823
-0.15059899,0.44786566,0.35712552,-0.017158844,0.19907938,-0.38950607,0.35330123,-0.56742764,0.039051533,0.42326328,0.20212643,0.34393406
-0.14224195,0.4469561,0.3691646,-0.006671481,0.19555975,-0.3888841,0.35330123,-0.56742764,0.039051533,0.42184073,0.20261027,0.34262896
-0.12710898,0.44589758,0.39101195,0.0023999363,0.18844017,-0.38769045,0.3494674,-0.5672332,0.044021487,0.4206139,0.20303765,0.34164166
-0.11588739,0.4431462,0.41688526,0.009020951,0.18056042,-0.3859615,0.3494674,-0.5672332,0.044021487,0.41950363,0.20333248,0.34033465
-0.11469997,0.43958816,0.4339844,0.013596442,0.1647946,-0.38270834,0.33580297,-0.5646276,0.021687746,0.41849968,0.20346199,0.33934188
-0.121604905,0.43725324,0.45504236,0.017484073,0.1518994,-0.37966377,0.33580297,-0.5646276,0.021687746,0.4175579,0.2033954,0.3380506
