ax, ay, az, gx, gy, gz, mx, my, mz, phi, theta, psi
-9.508941,0.547859,-1.603564,-0.002956,0.002556,0.000667,0.838946,-0.714242,0.108514,0,0,0
-9.554949,0.562572,-1.571841,-0.006811,0.007992,0.001039,0.838946,-0.714242,0.108514,0,0,0
-9.569836,0.532168,-1.60225,-0.014859,0.008704,0.001019,0.838946,-0.714242,0.108514,0,0,0
-9.600542,0.554714,-1.601166,-0.013249,0.010909,0.001052,0.828274,-0.719449,0.105136,2.81991334966278,1.39487421540039,-0.111607690008056
-9.646449,0.554203,-1.562066,-0.00646,0.006724,0.002319,0.828274,-0.719449,0.105136,2.81981353436717,1.39483789512933,-0.111697871094333
-9.623159,0.516484,-1.585946,-0.002234,0.006064,0.004255,0.828274,-0.719449,0.105136,2.81969556766267,1.39480159231156,-0.111817234061056
-9.607857,0.501329,-1.563769,0.005687,0.007214,-0.001502,0.828274,-0.719449,0.105136,2.81967931866106,1.39476712208794,-0.111853379799333
-9.62293,0.463078,-1.525968,0.007627,0.007198,-0.001175,0.846925,-0.722601,0.103568,2.81965828746133,1.39473249478483,-0.111912878023278
-9.645454,0.440265,-1.571261,0.012699,0.003943,-0.004735,0.846925,-0.722601,0.103568,2.81968813256633,1.39470833944839,-0.111920016413889
-9.607434,0.448117,-1.556927,0.002734,0.007222,-0.00409,0.846925,-0.722601,0.103568,2.81969904086494,1.39467591125828,-0.111921081063833
-9.58454,0.463637,-1.59524,-0.000522,-0.000697,-0.005798,0.846925,-0.722601,0.103568,2.81968940665561,1.39466358924417,-0.111934764433611
-9.592591,0.516787,-1.601891,-0.007541,-0.003148,-0.002949,0.838904,-0.719666,0.105773,2.81960791730167,1.39465496732494,-0.112059991701667
-9.623638,0.56964,-1.577606,-0.006658,0.003481,-0.006732,0.838904,-0.719666,0.105773,2.8196139386825,1.39463348234,-0.112042171905056
-9.585533,0.600563,-1.63886,-0.003433,0.007581,-0.006355,0.838904,-0.719666,0.105773,2.81964123560894,1.39460197917361,-0.112010965444389
-9.570093,0.585547,-1.654637,-0.002496,0.005657,-0.007663,0.838904,-0.719666,0.105773,2.81967970263317,1.39457607850939,-0.111970735639111
-9.562482,0.600915,-1.684977,0.001814,0.002802,-0.001884,0.841469,-0.72237,0.105873,2.819633887779,1.39455249913111,-0.112082436616889
-9.570434,0.615854,-1.631437,0.003684,0.005303,-0.004747,0.841469,-0.72237,0.105873,2.81964741406928,1.39452511493828,-0.112083274374222
-9.623958,0.653603,-1.682701,0.001415,0.002775,-0.005422,0.841469,-0.72237,0.105873,2.81965301657144,1.39450427572461,-0.112086381057667
-9.58603,0.669025,-1.660669,0.006643,0.005613,-0.001833,0.841469,-0.72237,0.105873,2.81963652322394,1.39447387211472,-0.112125214600722
-9.59351,0.661449,-1.683358,0.005418,0.008822,0.001096,0.844409,-0.72267,0.100786,2.81958728752733,1.39443353758978,-0.112163210386444
-9.577932,0.623584,-1.684274,-0.0027,0.002842,-0.002219,0.844409,-0.72267,0.100786,2.81954032075683,1.39441001057133,-0.112209287039778
-9.570682,0.661579,-1.668749,-0.003336,0.007615,-0.001846,0.844409,-0.72267,0.100786,2.81950797983311,1.39437485966989,-0.112238870345611
-9.608932,0.684146,-1.690246,-0.012671,0.007703,-0.001873,0.844409,-0.72267,0.100786,2.81945307182122,1.39433951678239,-0.112267685707222
-9.578144,0.638696,-1.661288,-0.008646,0.008994,0.005555,0.841469,-0.72237,0.105873,2.81930971059756,1.39429534253633,-0.112450892764056
-9.577867,0.615986,-1.684381,-0.013874,0.015367,0.002065,0.841469,-0.72237,0.105873,2.81923352704006,1.39423870664994,-0.112498260959944
-9.601056,0.638483,-1.653124,-0.010661,0.016286,0.001767,0.841469,-0.72237,0.105873,2.81917345285794,1.39418013344972,-0.112537426115278
-9.600734,0.600494,-1.653659,-0.014132,0.012534,0.004931,0.841469,-0.72237,0.105873,2.81904606138344,1.39412794814917,-0.112636159307667
-9.615991,0.577383,-1.600463,-0.010974,0.011847,0.002037,0.844402,-0.714473,0.10621,2.81895670060122,1.39407974219594,-0.112722675205611
-9.585701,0.577409,-1.5405,-0.007964,0.010273,0.00718,0.844402,-0.714473,0.10621,2.81880496180422,1.39403113481733,-0.112861812736056
-9.601114,0.592453,-1.532313,-0.006081,0.01373,0.004972,0.844402,-0.714473,0.10621,2.81870265068989,1.39397606972594,-0.112955519384444
-9.616472,0.584564,-1.486494,-0.006199,0.012101,-0.000518,0.844402,-0.714473,0.10621,2.81866568464756,1.39392922512839,-0.112982519605167
-9.608652,0.538846,-1.434191,0.002606,0.011741,0.004657,0.84166,-0.725266,0.100568,2.81857545120144,1.39387915167444,-0.113066382604889
-9.631573,0.546285,-1.441102,0.010212,0.010353,-0.000804,0.84166,-0.725266,0.100568,2.81857560828094,1.39383668784961,-0.113097379626222
-9.600923,0.523685,-1.427005,0.012507,0.006537,0.001091,0.84166,-0.725266,0.100568,2.81853944508939,1.3938017463875,-0.113171084818278
-9.585603,0.516211,-1.427494,0.014746,0.005876,0.000446,0.84166,-0.725266,0.100568,2.818514539262,1.39376889931872,-0.113239065335222
-9.585861,0.546602,-1.427066,0.017272,0.003294,-0.001826,0.841052,-0.730198,0.108318,2.81850870986722,1.39374416802411,-0.113408082877222
-9.601421,0.56916,-1.396,0.01931,0.005852,0.00304,0.841052,-0.730198,0.108318,2.81846074825989,1.39370931382839,-0.113511057216111
-9.555349,0.546849,-1.42783,0.016873,0.002001,-0.005385,0.841052,-0.730198,0.108318,2.81850123986433,1.39369027230233,-0.113518003620667
-9.571075,0.592229,-1.404034,0.008022,0.003097,0.002005,0.841052,-0.730198,0.108318,2.818426574742,1.39366278338983,-0.113619424617833
-9.563621,0.622765,-1.426569,0.004494,-0.000992,0.002593,0.84137,-0.716823,0.111237,2.81831138310867,1.39364468434078,-0.113850244216444
-9.532952,0.607845,-1.435137,0.001366,-0.004738,0.006724,0.84137,-0.716823,0.111237,2.81812290516194,1.39363201326111,-0.114050398406
-9.532684,0.592788,-1.473305,-0.004492,0.000058,0.003859,0.84137,-0.716823,0.111237,2.81797903779322,1.39361023157044,-0.114190373693778
-9.555264,0.56992,-1.503417,-0.012085,-0.001411,0.009934,0.84137,-0.716823,0.111237,2.81772928138822,1.39358708852411,-0.114418610207278
-9.570208,0.516473,-1.46583,-0.009229,0.00204,0.008048,0.836296,-0.722385,0.102931,2.81752176191544,1.39355736559206,-0.114611660912778
-9.608402,0.539096,-1.502508,-0.007662,0.003594,0.006142,0.836296,-0.722385,0.102931,2.817355606711,1.39352537373389,-0.1147662096875
-9.600286,0.478348,-1.495964,-0.008642,0.004234,0.005498,0.836296,-0.722385,0.102931,2.81719842249133,1.39349236958561,-0.1149091520325
-9.546688,0.448335,-1.482547,-0.00776,0.001659,0.001606,0.836296,-0.722385,0.102931,2.81708352756372,1.39346856331472,-0.115011393333722
-9.599974,0.425025,-1.458759,-0.00608,0.000713,0.004822,0.838812,-0.722316,0.105713,2.81692063612222,1.39344458251106,-0.115203885534333
-9.607445,0.409795,-1.466373,-0.005086,-0.000875,0.006096,0.838812,-0.722316,0.105713,2.81674186219794,1.39342320224578,-0.115377824900667
-9.622369,0.387017,-1.504266,-0.006081,-0.001513,0.004797,0.838812,-0.722316,0.105713,2.81657493904928,1.39340437015906,-0.115537173326778
-9.61464,0.371856,-1.49708,-0.004941,-0.003799,-0.001986,0.838812,-0.722316,0.105713,2.81649037791844,1.39339635910456,-0.115615765436611
-9.607141,0.387113,-1.497057,-0.009181,0.004161,-0.004488,0.838861,-0.725089,0.103031,2.81645850823322,1.39337159290339,-0.115635697079833
-9.630227,0.417374,-1.511238,-0.012836,0.000027,-0.009694,0.838861,-0.725089,0.103031,2.81647308172017,1.39336068460478,-0.115593495054167
-9.645621,0.440099,-1.525717,-0.011828,-0.000604,-0.007764,0.838861,-0.725089,0.103031,2.81646187671583,1.39334970649306,-0.115580073483556
-9.638075,0.463065,-1.55595,-0.011563,0.000643,-0.010325,0.838861,-0.725089,0.103031,2.81649070953072,1.39333783826417,-0.115526631547
-9.645823,0.470545,-1.54047,-0.012759,-0.001853,-0.00617,0.844169,-0.717,0.108773,2.81644510411589,1.39332874510644,-0.115597596574444
-9.65334,0.470594,-1.570643,-0.011983,-0.002449,-0.000057,0.844169,-0.717,0.108773,2.81632350712961,1.39331598676039,-0.115695928341444
-9.65322,0.463052,-1.585931,-0.014992,0.00135,-0.005177,0.844169,-0.717,0.108773,2.81627893145817,1.39329832404328,-0.115708355075222
-9.645841,0.485851,-1.570619,-0.015013,0.002296,-0.006132,0.844169,-0.717,0.108773,2.81625112838667,1.39327919525083,-0.115703695050056
-9.630853,0.501032,-1.532833,-0.009826,0.00353,-0.004491,0.833964,-0.717153,0.100268,2.81621531426067,1.39325587767172,-0.115667654031444
-9.64633,0.523674,-1.52454,-0.01278,-0.00186,-0.007134,0.833964,-0.717153,0.100268,2.81618780789489,1.39324739537872,-0.115668352162556
-9.600414,0.516531,-1.548565,-0.010198,0.001612,-0.006768,0.833964,-0.717153,0.100268,2.81617740574133,1.39323037843289,-0.115658246714722
-9.608162,0.524011,-1.533085,-0.009548,-0.005695,-0.006523,0.833964,-0.717153,0.100268,2.81613284752317,1.39323048315256,-0.115684478991222
-9.62375,0.546542,-1.494428,-0.00609,-0.005441,-0.01037,0.841512,-0.716946,0.108614,2.81614335439639,1.393233275677,-0.115728688143833
-9.608724,0.577084,-1.501973,-0.007,-0.005729,-0.0078,0.841512,-0.716946,0.108614,2.81612186941144,1.39323447995317,-0.115737955834333
-9.608935,0.615184,-1.531802,-0.003032,-0.007318,-0.002973,0.841512,-0.716946,0.108614,2.81603950739361,1.39323557950967,-0.115819148482556
-9.57823,0.592638,-1.532886,-0.000276,-0.002948,-0.009358,0.841512,-0.716946,0.108614,2.81606778170361,1.39323144308283,-0.115794940786278
-9.585747,0.592687,-1.563059,0.004293,-0.002971,-0.006445,0.844126,-0.722424,0.106032,2.81606359291694,1.39322521226267,-0.115849918611278
-9.570113,0.554878,-1.579157,-0.002138,-0.006081,-0.006181,0.844126,-0.722424,0.106032,2.81603133925961,1.39322596275361,-0.115882486427611
-9.577823,0.57772,-1.609008,0.004733,-0.009919,-0.001048,0.844126,-0.722424,0.106032,2.81593138433778,1.39323168742872,-0.116001273436167
-9.554709,0.547488,-1.602418,0.00248,-0.003545,-0.000988,0.844126,-0.722424,0.106032,2.81585342054594,1.39322226265872,-0.116091995574056
-9.585184,0.539614,-1.594171,0.000941,-0.001919,0.002245,0.83648,-0.717084,0.10305,2.81573116033511,1.39320653725544,-0.1162116552465
-9.569845,0.539821,-1.617325,0.004656,-0.003913,-0.004526,0.83648,-0.717084,0.10305,2.81570370632917,1.39320083003361,-0.116256597436778
-9.600358,0.516586,-1.563746,0.001474,-0.001646,-0.002901,0.83648,-0.717084,0.10305,2.81565696645128,1.39318843820639,-0.116313041337111
-9.615937,0.554451,-1.56283,-0.007204,-0.007909,-0.002352,0.83648,-0.717084,0.10305,2.81555336379439,1.39319044533333,-0.116405229550333
-9.608143,0.531692,-1.555751,-0.00761,-0.003807,-0.006174,0.836621,-0.717207,0.100427,2.81551264529733,1.39318587257456,-0.116381807251556
-9.600607,0.539324,-1.548244,-0.007273,-0.001582,-0.005504,0.836621,-0.717207,0.100427,2.81547869867205,1.39317541806117,-0.116403047890611
-9.562439,0.539661,-1.556789,-0.004146,-0.004501,-0.009713,0.836621,-0.717207,0.100427,2.81549505239333,1.39317524352839,-0.116381109120444
-9.562292,0.532147,-1.579669,-0.005,-0.004453,-0.004565,0.836621,-0.717207,0.100427,2.81544157555022,1.39317082784911,-0.116427953718
-9.562098,0.509354,-1.57999,-0.003705,-0.003828,-0.004233,0.841512,-0.716946,0.108614,2.81538420662617,1.39316492864122,-0.116558085357111
-9.56196,0.486505,-1.565129,-0.00726,-0.002845,-0.004879,0.841512,-0.716946,0.108614,2.81533641955161,1.39315695249328,-0.116593428244611
-9.569653,0.494041,-1.564831,-0.000458,-0.007342,-0.002973,0.841512,-0.716946,0.108614,2.81526041052689,1.39315810440961,-0.116674708159222
-9.615689,0.508726,-1.525517,-0.001436,-0.002258,-0.003561,0.841512,-0.716946,0.108614,2.81521239655972,1.39314768480278,-0.116725060865611
-9.56958,0.47879,-1.549863,-0.002201,-0.004197,-0.009062,0.828232,-0.724873,0.102394,2.81522107083878,1.39314649797989,-0.116757070177056
-9.607932,0.493592,-1.525922,0.002055,-0.001992,-0.005801,0.828232,-0.724873,0.102394,2.81521253618594,1.39313724774267,-0.116776181516222
-9.577319,0.478617,-1.519309,-0.00954,-0.004738,-0.006194,0.828232,-0.724873,0.102394,2.8151679605145,1.39313480428378,-0.116802466152556
-9.615495,0.485933,-1.525838,-0.018246,-0.006566,-0.006885,0.828232,-0.724873,0.102394,2.81510254562939,1.39313726519594,-0.116827808311889
-9.577181,0.455768,-1.504449,-0.012059,-0.004376,-0.003624,0.836423,-0.706114,0.111155,2.81501383061844,1.39313218629211,-0.116980018347389
-9.569691,0.478679,-1.5195,-0.015369,-0.002471,-0.007799,0.836423,-0.706114,0.111155,2.81498597518711,1.3931256762195,-0.116974520564889
-9.59238,0.478687,-1.572063,-0.01472,-0.008511,-0.00754,0.836423,-0.706114,0.111155,2.81492932184744,1.39313325094206,-0.116999915084056
-9.554369,0.494192,-1.572804,-0.01211,-0.006934,-0.005906,0.836423,-0.706114,0.111155,2.81486469235983,1.39313578166733,-0.117040022716389
-9.531403,0.471474,-1.543334,-0.008239,-0.006332,-0.005567,0.839229,-0.714488,0.103268,2.814803064836,1.39313677650417,-0.117063689361056
-9.569801,0.501555,-1.541952,-0.013236,-0.004758,-0.013289,0.839229,-0.714488,0.103268,2.81484271868311,1.39314009262694,-0.116995010713
-9.523793,0.486843,-1.573674,-0.012587,-0.009524,-0.013021,0.839229,-0.714488,0.103268,2.8148591422175,1.39315445667456,-0.116951569504611
-9.546889,0.501769,-1.550115,-0.018631,-0.00309,-0.009749,0.839229,-0.714488,0.103268,2.81484608716572,1.39315098347228,-0.116922754143
-9.508869,0.509621,-1.535781,-0.019668,-0.009136,-0.01304,0.841794,-0.717192,0.103368,2.8148418634725,1.3931646319355,-0.116871633492389
-9.524308,0.547624,-1.572819,-0.024182,-0.008461,-0.013367,0.841794,-0.717192,0.103368,2.81483863461611,1.39317676196356,-0.116818715154167
-9.532121,0.562702,-1.557232,-0.024832,-0.00687,-0.013673,0.841794,-0.717192,0.103368,2.81484491779611,1.39318538388278,-0.116754469638667
-9.493878,0.570776,-1.603625,-0.022924,-0.009118,-0.014659,0.841794,-0.717192,0.103368,2.81485895023144,1.39320011444922,-0.116687222159389
-9.516947,0.58573,-1.587656,-0.020242,-0.002756,-0.009749,0.836246,-0.719611,0.105613,2.81483798884483,1.39319610019533,-0.116724589627111
-9.532313,0.608483,-1.609726,-0.02354,-0.009739,-0.013376,0.836246,-0.719611,0.105613,2.81483078064111,1.39321126709372,-0.116677361057444
-9.53971,0.60099,-1.655187,-0.016382,-0.00883,-0.009801,0.836246,-0.719611,0.105613,2.81479836990428,1.39322142490139,-0.116673905308444
-9.524887,0.638991,-1.624671,-0.018578,-0.011962,-0.007266,0.836246,-0.719611,0.105613,2.81471300592267,1.39323694086533,-0.116718672965944
-9.532377,0.616081,-1.609619,-0.016395,-0.009786,-0.010455,0.833589,-0.719557,0.105454,2.81467947817606,1.39325015299661,-0.116784873248556
-9.509521,0.616239,-1.602601,-0.010936,-0.004444,-0.011023,0.833589,-0.719557,0.105454,2.8146964078555,1.39325090348756,-0.116745114681778
-9.524859,0.639019,-1.632261,-0.009041,-0.011145,-0.012698,0.833589,-0.719557,0.105454,2.81471021339822,1.39326886291039,-0.116713349716222
-9.5403,0.654035,-1.616484,-0.009691,-0.008283,-0.012989,0.833589,-0.719557,0.105454,2.81473902875983,1.39328027735406,-0.1166646725245
-9.532773,0.66932,-1.624052,-0.003477,-0.008626,-0.008464,0.841886,-0.714542,0.103427,2.81471715980278,1.3932890388995,-0.116668407525944
-9.525072,0.654131,-1.609275,-0.002853,-0.004193,-0.009381,0.841886,-0.714542,0.103427,2.81473375786994,1.39328786952989,-0.116649523079389
-9.509898,0.677159,-1.639699,-0.004121,-0.005761,-0.008436,0.841886,-0.714542,0.103427,2.81472771903583,1.39328964976422,-0.116650430649833
-9.525283,0.692231,-1.639103,-0.002155,-0.009261,-0.006857,0.841886,-0.714542,0.103427,2.81469007231567,1.3932984636695,-0.116688426435556
-9.533095,0.707309,-1.623517,0.003332,-0.011532,-0.006218,0.822825,-0.727415,0.102017,2.81464197108211,1.39331240883844,-0.116831717846111
-9.525079,0.684772,-1.677164,0.006599,-0.009642,-0.003934,0.822825,-0.727415,0.102017,2.81458592860717,1.39331977412167,-0.116910641568222
-9.555582,0.676871,-1.661326,0.006634,-0.010583,-0.002333,0.822825,-0.727415,0.102017,2.814504613786,1.39332806442861,-0.117015326328333
-9.540069,0.646604,-1.662136,0.004179,-0.005118,0.003189,0.822825,-0.727415,0.102017,2.81436875747178,1.39331898872417,-0.117169194425222
-9.532099,0.616358,-1.685527,0.009937,-0.010902,0.001533,0.841193,-0.730321,0.105695,2.81423754372944,1.39332521954433,-0.117426909524889
-9.562216,0.562871,-1.67033,0.008916,-0.00615,-0.000994,0.841193,-0.730321,0.105695,2.81416411778983,1.39332195578139,-0.117529377718722
-9.58511,0.547351,-1.632018,0.012143,-0.010942,-0.000713,0.841193,-0.730321,0.105695,2.81407355273144,1.39332979230311,-0.117657449871056
-9.561794,0.486672,-1.610674,0.010149,-0.003005,-0.003534,0.841193,-0.730321,0.105695,2.81405084601706,1.39332111802406,-0.117711537578889
-9.554073,0.479163,-1.618563,0.016306,-0.013528,-0.001698,0.84142,-0.719597,0.108555,2.81396644196572,1.39333614529622,-0.117934381029556
-9.561443,0.448711,-1.618799,0.014711,-0.008745,-0.001008,0.84142,-0.719597,0.108555,2.81389605289644,1.39333902508706,-0.118048508012944
-9.553936,0.456315,-1.603702,0.015236,-0.01292,-0.006525,0.84142,-0.719597,0.108555,2.81388104307756,1.39335621656567,-0.118107674624611
-9.538928,0.479176,-1.588581,0.012339,-0.013526,-0.006541,0.84142,-0.719597,0.108555,2.81385625942311,1.39337485666633,-0.118169406868111
-9.538735,0.456383,-1.588902,0.013018,-0.010345,-0.004895,0.839278,-0.717261,0.100586,2.81382098634872,1.39338475267483,-0.118185254444333
-9.569413,0.478956,-1.595408,0.005342,-0.008349,-0.002643,0.839278,-0.717261,0.100586,2.81375049255978,1.3933879989845,-0.118275662423222
-9.576912,0.463699,-1.595431,0.011346,-0.005907,-0.007748,0.839278,-0.717261,0.100586,2.81377335635367,1.39338958723278,-0.118286483455444
-9.561508,0.456308,-1.618692,0.001366,-0.009621,-0.007823,0.839278,-0.717261,0.100586,2.81375558891689,1.39340002429289,-0.118313239330278
-9.561499,0.448655,-1.603618,0.00026,-0.010613,-0.014277,0.8259,-0.719641,0.099731,2.81381082854105,1.3934181582485,-0.118252327390833
-9.538753,0.47169,-1.619051,-0.006402,-0.00956,-0.009781,0.8259,-0.719641,0.099731,2.81379976316294,1.39343002647739,-0.118252536830167
-9.546741,0.494254,-1.572995,-0.005764,-0.007345,-0.010075,0.8259,-0.719641,0.099731,2.81380412648239,1.39343688561556,-0.118238696380889
-9.538927,0.502164,-1.641396,-0.011252,-0.007299,-0.010737,0.8259,-0.719641,0.099731,2.813803725057,1.39344416363239,-0.118215762773889
-9.546813,0.532493,-1.640777,-0.012889,-0.007611,-0.012032,0.83667,-0.71998,0.097745,2.813810322396,1.39345332660322,-0.118109227966333
-9.531538,0.540298,-1.663824,-0.017746,-0.004081,-0.013298,0.83667,-0.71998,0.097745,2.81384194773533,1.39345503702444,-0.118037250648778
-9.539231,0.547833,-1.663526,-0.019516,-0.008134,-0.005943,0.83667,-0.71998,0.097745,2.81375382613583,1.39346044754056,-0.118082437184944
-9.509382,0.616377,-1.640555,-0.023183,-0.002426,-0.011686,0.83667,-0.71998,0.097745,2.8137580149225,1.393456956885,-0.118024527209278
-9.50953,0.623892,-1.617676,-0.023588,-0.004675,-0.015575,0.830889,-0.724927,0.102554,2.81379707535817,1.39346217541506,-0.117994158505944
-9.517324,0.646651,-1.624755,-0.026016,-0.003329,-0.008806,0.830889,-0.724927,0.102554,2.81375209826133,1.39345849277344,-0.117979009060833
-9.525126,0.677063,-1.646908,-0.025366,-0.003651,-0.008484,0.830889,-0.724927,0.102554,2.8137030370975,1.39345533373017,-0.117969654103944
-9.487023,0.684998,-1.655347,-0.025975,-0.003948,-0.006881,0.830889,-0.724927,0.102554,2.81362994277017,1.39345156382217,-0.117983162940944
-9.494835,0.700076,-1.63976,-0.021818,-0.002411,-0.008137,0.847208,-0.722847,0.098323,2.81358608268311,1.39344528064217,-0.117907380808833
-9.548564,0.722297,-1.600149,-0.012195,-0.006964,-0.00976,0.847208,-0.722847,0.098323,2.81357191062155,1.393450987864,-0.117896018725
-9.556238,0.714527,-1.569701,-0.007296,-0.007621,-0.006531,0.847208,-0.722847,0.098323,2.81352438534617,1.39345563043589,-0.117930995093667
-9.579168,0.729619,-1.591687,-0.003986,-0.004129,-0.002294,0.847208,-0.722847,0.098323,2.81344488566589,1.39344861421822,-0.118006864492167
-9.563579,0.707089,-1.630344,0.002256,-0.006367,0.003495,0.843893,-0.724952,0.108595,2.81328860901667,1.39344255793083,-0.118313344049944
-9.54848,0.72238,-1.622921,0.008,-0.01279,0.00119,0.843893,-0.724952,0.108595,2.81315413151139,1.39345320443028,-0.118475519907056
-9.563681,0.722312,-1.637721,0.010869,-0.007113,-0.000025,0.843893,-0.724952,0.108595,2.81306840101094,1.39345140674267,-0.118595458831944
-9.517628,0.669333,-1.59407,0.019505,-0.011024,-0.002619,0.843893,-0.724952,0.108595,2.81302089318883,1.39346095368561,-0.118698485530667
-9.54814,0.669085,-1.593307,0.021857,-0.009425,0.001916,0.838628,-0.727617,0.105595,2.81292085100061,1.39346334478467,-0.118960127617833
-9.555943,0.699498,-1.61546,0.013752,-0.014766,-0.000744,0.838628,-0.727617,0.105595,2.81281733561011,1.39348023955756,-0.119105443608611
-9.578374,0.669115,-1.668451,0.02154,-0.012599,0.002203,0.838628,-0.727617,0.105595,2.81270413365044,1.39348961196772,-0.119280395265056
-9.578291,0.669198,-1.691223,0.018425,-0.014754,0.006998,0.838628,-0.727617,0.105595,2.81251008810811,1.39350020610733,-0.119529540805333
-9.577793,0.623723,-1.722228,0.016773,-0.009991,0.00511,0.836345,-0.725158,0.100249,2.81235311332778,1.39350121839744,-0.119733325276667
-9.592965,0.623682,-1.744619,0.015009,-0.008443,-0.001961,0.836345,-0.725158,0.100249,2.81229726283889,1.39350411564156,-0.119833402371444
-9.607696,0.578111,-1.782833,0.008389,-0.00452,0.004497,0.836345,-0.725158,0.100249,2.81215730500439,1.39349250921183,-0.120002123207722
-9.592255,0.563095,-1.79861,0.012559,-0.00139,0.0039,0.836345,-0.725158,0.100249,2.81204981026656,1.39347397383083,-0.120148468941889
-9.637959,0.555125,-1.797572,0.01321,0.00178,0.004261,0.825525,-0.722046,0.104917,2.81194777840467,1.39344789863383,-0.120388050085944
-9.622408,0.517233,-1.790898,0.010214,-0.006799,-0.000353,0.825525,-0.722046,0.104917,2.81186616687778,1.39344561225444,-0.120502142162778
-9.622344,0.509635,-1.791005,0.011138,-0.004918,-0.002261,0.825525,-0.722046,0.104917,2.81182054400967,1.39344039372439,-0.120581990908611
-9.599958,0.555296,-1.760572,0.003491,-0.001321,0.001295,0.825525,-0.722046,0.104917,2.81172514439333,1.39342379565722,-0.120693028661833
-9.584675,0.532461,-1.71573,0.005661,-0.004228,-0.002595,0.828373,-0.724996,0.099772,2.81166817689467,1.393417372851,-0.120775582665722
-9.561976,0.547786,-1.700908,0.000232,0.001239,-0.000622,0.828373,-0.724996,0.099772,2.81160150537356,1.39339627183817,-0.120849130778278
-9.615612,0.562437,-1.668994,-0.001391,0.004423,-0.001232,0.828373,-0.724996,0.099772,2.8115532470605,1.39336813715439,-0.120899867456778
-9.592682,0.547344,-1.647008,-0.005561,0.001295,-0.000639,0.828373,-0.724996,0.099772,2.81147261291717,1.39334691396861,-0.120972909424278
-9.56942,0.509597,-1.663298,-0.009732,0.002929,0.000006,0.831214,-0.719749,0.100049,2.81137541561322,1.39332143218306,-0.121033699190778
-9.600272,0.562644,-1.692148,-0.012316,-0.005307,-0.000411,0.831214,-0.719749,0.100049,2.81124507453478,1.39331563769483,-0.121140059465556
-9.616045,0.600315,-1.638096,-0.009543,-0.000933,-0.006146,0.831214,-0.719749,0.100049,2.81121707947722,1.39330413598478,-0.121149519142111
-9.623969,0.615282,-1.592146,-0.009121,0.000369,-0.001621,0.831214,-0.719749,0.100049,2.8111363580675,1.3932858973095,-0.121213572671556
-9.60139,0.63815,-1.562035,-0.01236,0.006746,-0.002528,0.833589,-0.719557,0.105454,2.81108284631783,1.3932535389325,-0.121309111914111
-9.601224,0.615329,-1.554765,-0.006643,0.001583,-0.006108,0.833589,-0.719557,0.105454,2.81107296776261,1.39323606820144,-0.121307506212556
-9.586208,0.630537,-1.52457,-0.00562,0.0035,-0.003508,0.833589,-0.719557,0.105454,2.81104005088072,1.39321194777156,-0.121331905894889
-9.624874,0.675675,-1.485019,-0.00464,-0.002221,-0.002919,0.833589,-0.719557,0.105454,2.810975979898,1.39320088239344,-0.121390444188556
-9.594445,0.67584,-1.46301,-0.002499,-0.001963,-0.008061,0.84137,-0.716823,0.111237,2.81098032576417,1.39319367418972,-0.121504588625222
-9.609553,0.668201,-1.485508,0.000083,-0.005162,-0.007765,0.84137,-0.716823,0.111237,2.81097861534294,1.39319349965694,-0.121511779375667
-9.601924,0.691251,-1.538514,0.001432,-0.003566,-0.004845,0.84137,-0.716823,0.111237,2.81094903203711,1.39318718157039,-0.121550700185111
-9.601803,0.706696,-1.606617,0.007588,-0.008693,-0.002949,0.84137,-0.716823,0.111237,2.81088667147561,1.39319144017017,-0.121638559985444
-9.601545,0.676305,-1.607045,0.007337,-0.002632,0.000335,0.830656,-0.727455,0.105117,2.81080212779806,1.39317894362328,-0.121829987536111
-9.601305,0.661221,-1.637622,0.010331,-0.00993,0.004771,0.830656,-0.727455,0.105117,2.81063934107622,1.39317985119372,-0.122026843056167
-9.616643,0.684001,-1.667282,0.01702,-0.007481,0.001603,0.830656,-0.727455,0.105117,2.81054608821306,1.39317754736106,-0.122170064653611
-9.60123,0.668957,-1.675469,0.019315,-0.010028,0.003512,0.830656,-0.727455,0.105117,2.81042189068839,1.3931797115675,-0.122350531545833
-9.600973,0.638566,-1.675897,0.017264,-0.006241,-0.001927,0.844826,-0.714841,0.098341,2.81037673905878,1.39317733792172,-0.122323217166111
-9.615934,0.600426,-1.668459,0.018216,-0.011019,-0.002621,0.844826,-0.714841,0.098341,2.81032608964667,1.39318683250483,-0.122426174051722
-9.592866,0.585472,-1.684427,0.013814,-0.01062,0.002195,0.844826,-0.714841,0.098341,2.81020279969244,1.39319145762344,-0.122591753298
-9.653862,0.585004,-1.690491,0.003493,-0.002592,0.001286,0.844826,-0.714841,0.098341,2.81010205937311,1.39317784406678,-0.122708219020611
-9.653898,0.592629,-1.697975,0.003759,0.000243,-0.001257,0.841794,-0.717192,0.103368,2.81004311965406,1.39315971011117,-0.1227738084385
-9.661868,0.622875,-1.674583,0.003535,-0.004483,0.003199,0.841794,-0.717192,0.103368,2.80990876432172,1.39314901125189,-0.122924534945389
-9.615842,0.592856,-1.676157,0.00483,-0.002268,0.003546,0.841794,-0.717192,0.103368,2.80978313562828,1.39313277970356,-0.123069658950111
-9.630904,0.569939,-1.676096,0.009917,-0.004563,0.00064,0.841794,-0.717192,0.103368,2.80969808580567,1.39312434977039,-0.123186491191556
-9.646695,0.622916,-1.652193,0.00961,0.000208,0.001339,0.836522,-0.71166,0.105791,2.80961930170978,1.39310420868783,-0.123321352668944
-9.616414,0.630595,-1.607305,0.018162,-0.002145,-0.005098,0.836522,-0.71166,0.105791,2.80964136265289,1.393094731558,-0.123350307656778
-9.616636,0.65336,-1.599393,0.02502,-0.002176,-0.000567,0.836522,-0.71166,0.105791,2.80962082014494,1.39308164159967,-0.123439965144722
-9.594065,0.683881,-1.584356,0.024671,-0.004086,-0.001876,0.836522,-0.71166,0.105791,2.8096079745325,1.39307411923694,-0.123520913447056
-9.617208,0.691099,-1.530541,0.033049,-0.004164,-0.001525,0.833723,-0.711483,0.108255,2.80960539144739,1.39306670159389,-0.123678743438
-9.601703,0.668485,-1.546425,0.028332,-0.007571,0.003571,0.833723,-0.711483,0.108255,2.80951421552428,1.39306298404572,-0.123848581284056
-9.632058,0.65307,-1.553466,0.023517,-0.005616,0.004221,0.833723,-0.711483,0.108255,2.80941134590506,1.39305410032733,-0.124018070064556
-9.624384,0.66084,-1.583914,0.022151,-0.006584,0.000664,0.833723,-0.711483,0.108255,2.80934746690839,1.39305041768572,-0.124144466702222
-9.639473,0.660883,-1.629076,0.019911,-0.005607,0.001311,0.838854,-0.716892,0.108455,2.80926815921417,1.39304409959917,-0.124346924724444
-9.593207,0.615779,-1.661227,0.026943,-0.00315,-0.000896,0.838854,-0.716892,0.108455,2.80925238145105,1.39303355781939,-0.124436634572222
-9.616164,0.630844,-1.675622,0.022527,-0.007205,0.003231,0.838854,-0.716892,0.108455,2.80915288031444,1.3930292294065,-0.124600189238278
-9.615804,0.608218,-1.721488,0.026941,-0.006329,-0.000931,0.838854,-0.716892,0.108455,2.80912312247583,1.393026244896,-0.124704088600889
-9.600576,0.608314,-1.714279,0.026417,-0.004375,0.004561,0.833829,-0.725227,0.097467,2.80902367369905,1.39301418468106,-0.124814690022167
-9.600668,0.615884,-1.706581,0.025983,-0.006633,-0.000616,0.833829,-0.725227,0.097467,2.80898600952561,1.39301165395578,-0.124924191886944
-9.592838,0.585499,-1.692018,0.026088,-0.008183,0.004195,0.833829,-0.725227,0.097467,2.80887830534844,1.39300886143133,-0.125105112564389
-9.608139,0.600654,-1.714195,0.020644,-0.001136,0.005543,0.833829,-0.725227,0.097467,2.80877131675567,1.39298830147011,-0.125271494661444
-9.600411,0.562506,-1.654194,0.009982,0.003717,0.003627,0.83872,-0.724966,0.105654,2.80867928562194,1.39295800257989,-0.125447563327667
-9.600485,0.577757,-1.669162,0.006398,0.002784,0.001673,0.83872,-0.724966,0.105654,2.80860542335039,1.39293133397144,-0.125544097407056
-9.60043,0.554825,-1.631529,0.002515,0.000592,0.00067,0.83872,-0.724966,0.105654,2.80852512081933,1.39291066929056,-0.125637332816944
-9.592451,0.539913,-1.69266,-0.001986,-0.001586,0.000951,0.83872,-0.724966,0.105654,2.80841996482072,1.392894926434,-0.125744356316278
-9.615408,0.554978,-1.707055,-0.012924,0.000426,0.00126,0.841236,-0.724897,0.108436,2.808286778858,1.39287436647278,-0.125934422511278
-9.623313,0.577626,-1.683771,-0.019627,-0.000442,0.003805,0.841236,-0.724897,0.108436,2.80810529967567,1.39285357961894,-0.126074205813
-9.58522,0.570227,-1.654469,-0.020963,0.006225,0.001618,0.841236,-0.724897,0.108436,2.80797958371583,1.39281881268961,-0.126153932385889
-9.593161,0.600501,-1.638669,-0.019968,0.004955,0.002897,0.841236,-0.724897,0.108436,2.80783381393983,1.39278601798067,-0.126256557659222
-9.601066,0.623149,-1.615384,-0.010633,0.001372,0.002891,0.841469,-0.72237,0.105873,2.80768968477194,1.39276181028439,-0.126409518185667
-9.585608,0.592826,-1.601013,-0.008379,0.006115,0.002948,0.841469,-0.72237,0.105873,2.80757758236878,1.392726223051,-0.126507378714167
-9.577852,0.554705,-1.548603,-0.007398,-0.000239,0.003524,0.841469,-0.72237,0.105873,2.80743146352722,1.39270515694472,-0.126642275098111
-9.608881,0.592252,-1.494168,-0.007159,-0.000271,-0.000335,0.841469,-0.72237,0.105873,2.80733646533628,1.39268733714811,-0.126725858845389
-9.578064,0.569817,-1.525616,-0.002247,0.00003,0.003545,0.825567,-0.716622,0.107658,2.80719846226889,1.39266581725661,-0.126942960167667
-9.54735,0.539619,-1.511626,0.000894,-0.003837,-0.000031,0.825567,-0.716622,0.107658,2.80710339426483,1.392656165594,-0.127047068969611
-9.593219,0.55447,-1.517858,-0.0011,-0.00289,-0.002922,0.825567,-0.716622,0.107658,2.80704558900883,1.39264663610433,-0.1271082601615
-9.601003,0.592564,-1.562677,-0.003369,-0.007956,-0.003627,0.825567,-0.716622,0.107658,2.806968253535,1.39264965552139,-0.127183501242
-9.577925,0.569956,-1.56357,0.004076,-0.009599,-0.00169,0.833356,-0.722085,0.108018,2.806870864245,1.39265517075717,-0.127373602343556
-9.593328,0.600334,-1.593124,0.004727,-0.003254,-0.001295,0.833356,-0.722085,0.108018,2.80680462905583,1.392645170029,-0.127458146021111
-9.562741,0.608318,-1.631735,0.0125,-0.004263,0.000972,0.833356,-0.722085,0.108018,2.806723523674,1.39263569289917,-0.127577561347667
-9.555298,0.62352,-1.61653,0.003123,-0.006092,-0.00101,0.833356,-0.722085,0.108018,2.80663662380394,1.39263214988378,-0.127679034704667
-9.58568,0.631064,-1.668795,0.008664,-0.010252,0.002184,0.833264,-0.724735,0.107959,2.80649689286206,1.39263602451144,-0.127927010875333
-9.570572,0.638703,-1.646297,0.011121,-0.008412,-0.003261,0.833264,-0.724735,0.107959,2.80644891380144,1.39263981187272,-0.1280092681735
-9.577996,0.631182,-1.684167,0.009665,-0.006438,0.003838,0.833264,-0.724735,0.107959,2.80631321456672,1.39263310981406,-0.128176924359833
-9.562657,0.631389,-1.707322,0.016495,-0.001398,0.007135,0.833264,-0.724735,0.107959,2.80617442610183,1.39261178190861,-0.128365105600833
-9.539717,0.63163,-1.723076,0.018579,-0.002431,-0.000598,0.841518,-0.725143,0.103191,2.80613224152944,1.39259933772156,-0.128437885769167
-9.532218,0.646888,-1.723053,0.025808,-0.007528,0.006132,0.841518,-0.725143,0.103191,2.806001900451,1.39259329888744,-0.128641111735611
-9.593399,0.66156,-1.713721,0.02676,-0.0031,0.005544,0.841518,-0.725143,0.103191,2.80590192807589,1.39257729423172,-0.128815923765833
-9.56999,0.593311,-1.700075,0.030616,-0.005996,0.005199,0.841518,-0.725143,0.103191,2.8058028807245,1.39256841051333,-0.128999584607889
-9.577249,0.562969,-1.730675,0.027446,-0.002773,0.007476,0.838946,-0.714242,0.108514,2.80567529726394,1.39255015438478,-0.129230962711389
-9.599773,0.540156,-1.775968,0.025877,0.000112,0.009434,0.838946,-0.714242,0.108514,2.80553692767772,1.39252334615011,-0.129442548797889
-9.615168,0.539894,-1.737632,0.025843,-0.002758,0.007794,0.838946,-0.714242,0.108514,2.80540686585172,1.39250467114289,-0.129645600231556
-9.576808,0.494451,-1.693684,0.025795,-0.005629,0.005505,0.838946,-0.714242,0.108514,2.80529354171911,1.39249463550817,-0.129831512546444
-9.569005,0.487026,-1.724345,0.020252,0.001702,0.002346,0.841702,-0.719842,0.103309,2.80523620770161,1.39246995657339,-0.129902756826333
-9.599719,0.517224,-1.738335,0.024234,-0.000836,0.007807,0.841702,-0.719842,0.103309,2.80511084080733,1.39244672626067,-0.130096941994889
-9.59246,0.547566,-1.707735,0.021967,-0.000183,0.007164,0.841702,-0.719842,0.103309,2.804991250948,1.39242246620456,-0.130279503280444
-9.599994,0.562922,-1.768056,0.018411,-0.000791,0.006502,0.841702,-0.719842,0.103309,2.80486869403144,1.39240017836883,-0.130456060638444
-9.561791,0.532646,-1.716303,0.025444,-0.000238,0.004275,0.833214,-0.721962,0.110641,2.80478956087,1.39237864102406,-0.130711506812
-9.5624,0.578011,-1.654935,0.024466,-0.001184,0.003621,0.833214,-0.721962,0.110641,2.80471810715078,1.39235965185783,-0.130851517006333
-9.562484,0.577927,-1.632163,0.029296,0.006391,0.00372,0.833214,-0.721962,0.110641,2.80469215412672,1.39232272072206,-0.130957545668833
-9.562898,0.623486,-1.62393,0.030234,0.001291,0.002382,0.833214,-0.721962,0.110641,2.80466271044711,1.39229893190444,-0.131069525899056
-9.562466,0.562621,-1.602013,0.029038,-0.001204,0.006533,0.836154,-0.722262,0.105554,2.80455926486972,1.39227769126539,-0.131260569477611
-9.569937,0.547391,-1.609627,0.023936,-0.001773,0.008763,0.836154,-0.722262,0.105554,2.804416654137,1.39225583976161,-0.131471527246111
-9.546933,0.540035,-1.625488,0.018337,-0.000493,0.002961,0.836154,-0.722262,0.105554,2.80434179702861,1.39223576849217,-0.131599424865667
-9.562309,0.547453,-1.609818,0.020962,-0.000819,0.005221,0.836154,-0.722262,0.105554,2.80424250533133,1.39221459766622,-0.131758843104889
-9.569937,0.547391,-1.609627,0.021557,0.004873,0.003033,0.83327,-0.732932,0.102535,2.80419410739206,1.39218189022367,-0.13187452343
-9.508812,0.532664,-1.603778,0.018744,0.003981,0.006873,0.83327,-0.732932,0.102535,2.8040897716975,1.39214803086478,-0.132033418070889
-9.531927,0.539909,-1.557553,0.014749,0.00175,0.00072,0.83327,-0.732932,0.102535,2.80404561490472,1.39212452129961,-0.132120998618778
-9.547267,0.539702,-1.534399,0.016458,0.002403,0.005241,0.83327,-0.732932,0.102535,2.80394970914333,1.39209572339128,-0.132265511758778
-9.554646,0.516902,-1.54971,0.006437,0.003437,0.003286,0.820069,-0.721815,0.107222,2.80385340195656,1.39206626225839,-0.132460988469889
-9.524512,0.555083,-1.534758,0.000894,-0.000661,0.000003,0.820069,-0.721815,0.107222,2.80377299470583,1.39204903587322,-0.132550227079167
-9.616314,0.592384,-1.547113,0.001145,-0.000694,-0.003209,0.820069,-0.721815,0.107222,2.80373499892011,1.39203453219939,-0.132596984410333
-9.578138,0.585068,-1.540584,-0.001696,-0.00763,-0.000722,0.820069,-0.721815,0.107222,2.80362561922828,1.39203434021333,-0.132709069360222
-9.578533,0.638308,-1.555017,0.002902,0.001249,0.003579,0.831441,-0.709025,0.102909,2.80350753035083,1.392009626372,-0.132762022605
-9.586014,0.630732,-1.577705,0.004497,0.002816,0.002957,0.831441,-0.709025,0.102909,2.80341357935656,1.39198173603411,-0.132874159914722
-9.540393,0.638618,-1.555971,0.007038,0.001194,0.001336,0.831441,-0.709025,0.102909,2.80333973453828,1.39195901186644,-0.1329723520555
-9.571339,0.676248,-1.52431,0.014498,-0.005845,0.003864,0.831441,-0.709025,0.102909,2.80321927201506,1.39195079137261,-0.133136849198556
-9.563674,0.668684,-1.517017,0.017395,-0.005555,0.003876,0.841469,-0.72237,0.105873,2.80310193362856,1.39194197746733,-0.133303126575944
-9.593624,0.615363,-1.547365,0.027059,0.001973,0.004312,0.841469,-0.72237,0.105873,2.80304295900294,1.39191494234006,-0.133437045576333
-9.577963,0.554594,-1.51824,0.022231,-0.002425,0.004244,0.841469,-0.72237,0.105873,2.80295263829044,1.39189832681961,-0.133590564607667
-9.562356,0.539745,-1.579562,0.016827,-0.004253,0.007423,0.841469,-0.72237,0.105873,2.80279896217961,1.39188338681383,-0.133794715597833
-9.592766,0.547261,-1.624236,0.01679,-0.011254,0.005738,0.838812,-0.722316,0.105713,2.802629717745,1.39188644113744,-0.134017332155889
-9.562299,0.562788,-1.647558,0.017441,-0.001096,0.006173,0.838812,-0.722316,0.105713,2.802508452371,1.39186507832544,-0.134190119605889
-9.585248,0.570199,-1.646878,0.014802,-0.007128,0.003202,0.838812,-0.722316,0.105713,2.80239160267628,1.39186041830028,-0.134351719504833
-9.577444,0.562775,-1.677539,0.023717,-0.006499,0.01354,0.838812,-0.722316,0.105713,2.80216519875694,1.39184565282728,-0.134647290764
-9.554468,0.55539,-1.68581,0.026103,-0.005318,0.004867,0.844452,-0.717246,0.103528,2.80205834979039,1.39183535539339,-0.134760283284333
-9.5769,0.502021,-1.685986,0.025508,-0.005296,0.007117,0.844452,-0.717246,0.103528,2.80192570487928,1.39182308573911,-0.134965114952333
-9.584483,0.48668,-1.663237,0.02742,0.000076,0.006217,0.844452,-0.717246,0.103528,2.80183435442339,1.39179889549611,-0.135132875858333
-9.568675,0.418397,-1.65699,0.027482,-0.00911,0.00901,0.844452,-0.717246,0.103528,2.80166449912406,1.39179404348489,-0.135380555323278
-9.591808,0.440948,-1.640915,0.030037,-0.002157,0.008131,0.838578,-0.724843,0.108277,2.80153901005683,1.391773692963,-0.135648183884722
-9.599335,0.425663,-1.633347,0.028987,-0.0044,0.00424,0.838578,-0.724843,0.108277,2.80145678766522,1.39176168510789,-0.135810621541
-9.576423,0.425877,-1.641511,0.025019,-0.005986,-0.000622,0.838578,-0.724843,0.108277,2.80142065938022,1.39175749632122,-0.135916161511722
-9.599573,0.463735,-1.655585,0.019204,-0.00054,-0.001545,0.838578,-0.724843,0.108277,2.80140709818339,1.39174121241306,-0.135983967495889
-9.599408,0.440914,-1.648315,0.017608,-0.005283,-0.000959,0.83349,-0.714011,0.110818,2.80135459872383,1.39173581935022,-0.136155445950056
-9.584326,0.471512,-1.671041,0.020791,-0.006596,-0.002572,0.83349,-0.714011,0.110818,2.80133049574722,1.39173468488717,-0.136238017407222
-9.576947,0.494312,-1.65573,0.013458,-0.004594,0.000645,0.83349,-0.714011,0.110818,2.80125539429294,1.39172613278106,-0.136353767545444
-9.531179,0.494683,-1.656875,0.016516,0.00453,-0.006651,0.83349,-0.714011,0.110818,2.801325015418,1.39170218688394,-0.136330240527
-9.531244,0.502281,-1.656768,0.013332,-0.001143,-0.005114,0.838996,-0.717015,0.105832,2.80133555719778,1.39169038846817,-0.136335930295556
-9.5162,0.517517,-1.634164,0.013382,0.002686,-0.002819,0.838996,-0.717015,0.105832,2.80133894313367,1.39166757703411,-0.136371744421556
-9.516412,0.53263,-1.611178,0.015335,0.001723,-0.001856,0.838996,-0.717015,0.105832,2.80133023394806,1.39164623167539,-0.136424802386
-9.532028,0.555132,-1.56493,0.012839,0.000188,0.001663,0.838996,-0.717015,0.105832,2.80126244541717,1.39162558444778,-0.136531564086167
-9.508942,0.524872,-1.550749,0.014063,-0.004291,-0.001282,0.830748,-0.724804,0.105176,2.80121026011661,1.39161806208506,-0.136647436397333
-9.516976,0.562715,-1.527251,0.013168,-0.00521,0.001926,0.830748,-0.724804,0.105176,2.80111501757978,1.39160989395106,-0.136782926192722
-9.486556,0.570533,-1.520317,0.014778,-0.000778,0.001979,0.830748,-0.724804,0.105176,2.80104356386056,1.39159123639711,-0.136898344718667
-9.478937,0.578248,-1.535582,0.019606,-0.000824,0.001995,0.830748,-0.724804,0.105176,2.80098376893089,1.39157268356283,-0.137014182123278
-9.532793,0.638652,-1.548572,0.025868,-0.005397,-0.006077,0.832938,-0.729913,0.110463,2.80101787263567,1.39157188071206,-0.137166200172722
-9.486435,0.585978,-1.58842,0.027057,-0.004374,0.004235,0.832938,-0.729913,0.110463,2.80093123456478,1.39155982049711,-0.137328253856889
-9.471621,0.631633,-1.572978,0.026679,-0.010105,0.001597,0.832938,-0.729913,0.110463,2.80085152544517,1.39156345077889,-0.137482279033278
-9.463091,0.525327,-1.574667,0.026385,-0.006281,0.00292,0.832938,-0.729913,0.110463,2.80077151961983,1.39155697561283,-0.137635867877722
-9.516026,0.487043,-1.611819,0.018925,-0.000199,0.000387,0.836013,-0.722139,0.108177,2.80072867182289,1.39153844023183,-0.137762997553056
-9.569162,0.479206,-1.663725,0.006755,-0.003239,0.003212,0.836013,-0.722139,0.108177,2.80060986736105,1.39152454742272,-0.137906149337389
-9.591853,0.456227,-1.663474,0.006076,-0.003564,0.001597,0.836013,-0.722139,0.108177,2.80050886524256,1.39151276646022,-0.138029474198167
-9.607174,0.463701,-1.662985,-0.000341,0.002539,0.002609,0.836013,-0.722139,0.108177,2.80040685083394,1.39148574878622,-0.138137544894167
-9.614701,0.448416,-1.655417,-0.003594,0.003828,0.001002,0.827617,-0.721608,0.115568,2.80031771694433,1.39145735230328,-0.138393776465222
-9.599482,0.433178,-1.610468,0.000564,0.007272,-0.000235,0.827617,-0.721608,0.115568,2.80027684136778,1.39142157308383,-0.138442017325
-9.607406,0.448145,-1.564518,0.004665,0.003393,-0.004126,0.827617,-0.721608,0.115568,2.80027884849472,1.39139818569161,-0.138457079503722
-9.622497,0.4252,-1.556866,0.008248,0.001468,-0.002203,0.827617,-0.721608,0.115568,2.80025596724756,1.39137773045006,-0.138506542092944
-9.615377,0.455403,-1.488312,0.012064,0.00078,-0.00445,0.828133,-0.719326,0.107758,2.80026364668978,1.39136092294356,-0.138552514026611
-9.630899,0.493323,-1.502577,0.022084,-0.004701,-0.002542,0.828133,-0.719326,0.107758,2.80025130722239,1.39135526808156,-0.138626428658
-9.631038,0.493185,-1.464623,0.027816,-0.001285,-0.005382,0.828133,-0.719326,0.107758,2.80030593598183,1.39134395835756,-0.138646814086444
-9.638943,0.515833,-1.441339,0.028965,-0.003771,0.002967,0.828133,-0.719326,0.107758,2.80024357542033,1.3913315141705,-0.138789058300333
-9.646441,0.523563,-1.494177,0.037829,-0.002006,-0.003745,0.833356,-0.722085,0.108018,2.80029368378083,1.391320675685,-0.138854019400222
-9.638665,0.51611,-1.517247,0.03915,-0.009627,-0.002215,0.833356,-0.722085,0.108018,2.80029705226344,1.39132636545356,-0.138955318224444
-9.623105,0.493552,-1.548313,0.039472,-0.00709,-0.002188,0.833356,-0.722085,0.108018,2.80031258568067,1.39132605129456,-0.139045080432056
-9.615384,0.486044,-1.556202,0.03227,-0.008016,-0.007696,0.833356,-0.722085,0.108018,2.80037737224778,1.39133254391389,-0.139066495603889
-9.615439,0.508976,-1.593835,0.027798,-0.007326,-0.006094,0.83797,-0.729776,0.116027,2.800407671138,1.39133636618172,-0.1392680984155
-9.607654,0.49387,-1.60183,0.026489,-0.005415,-0.007044,0.83797,-0.729776,0.116027,2.80046151449994,1.39133617419567,-0.139285935665389
-9.592084,0.463658,-1.617822,0.021576,-0.000952,-0.010877,0.83797,-0.729776,0.116027,2.80057344237033,1.39132866928622,-0.139232266836222
-9.592057,0.463686,-1.625413,0.018462,-0.002472,-0.006076,0.83797,-0.729776,0.116027,2.80060820929967,1.39132074549811,-0.139249091796
-9.607884,0.524289,-1.608993,0.018344,0.001296,-0.011504,0.846034,-0.727287,0.116564,2.80072514626078,1.39130875509628,-0.139298205319667
-9.562164,0.493964,-1.527068,0.017191,-0.003721,-0.005449,0.846034,-0.727287,0.116564,2.80074284388444,1.39130322240722,-0.139329149981167
-9.539224,0.494205,-1.542822,0.017198,-0.00213,-0.005111,0.846034,-0.727287,0.116564,2.80076349111206,1.39129367546428,-0.139357110132167
-9.562274,0.51684,-1.549519,0.015203,-0.003722,-0.00803,0.846034,-0.727287,0.116564,2.80080974229817,1.39129032443494,-0.139354003448722
-9.5237,0.479273,-1.581372,0.011087,-0.005879,-0.004853,0.838437,-0.724721,0.1109,2.80078960121561,1.39128959139728,-0.1394349168445
-9.523968,0.494329,-1.543204,0.011697,-0.003356,-0.006432,0.838437,-0.724721,0.1109,2.80080801442367,1.39128402380167,-0.139451183299389
-9.500919,0.471694,-1.536507,0.009073,-0.00811,-0.008749,0.838437,-0.724721,0.1109,2.80082805078656,1.3912916159775,-0.139459124540778
-9.515879,0.456541,-1.581884,0.004859,-0.007447,-0.010044,0.838437,-0.724721,0.1109,2.80085742465305,1.39129871946156,-0.139446889793056
-9.515926,0.448833,-1.551628,-0.000682,-0.003289,-0.013236,0.841101,-0.732972,0.105636,2.8009290179985,1.39129882418122,-0.139344072533667
-9.554379,0.478858,-1.535064,-0.007316,-0.009215,-0.007525,0.841101,-0.732972,0.105636,2.80088711267856,1.39130798715206,-0.139373324227222
-9.561574,0.440919,-1.565771,-0.009228,-0.013953,-0.006619,0.841101,-0.732972,0.105636,2.80080682760078,1.39132755227644,-0.139436731985389
-9.507744,0.403475,-1.598005,-0.011852,-0.000289,-0.008737,0.841101,-0.732972,0.105636,2.800810422976,1.39131669633767,-0.139408230782778
-9.546004,0.410707,-1.581762,-0.010011,-0.003516,-0.012949,0.838529,-0.72207,0.110959,2.80085367219833,1.39131716757617,-0.139369397239722
-9.561335,0.402847,-1.543533,-0.013039,-0.003419,-0.004265,0.838529,-0.72207,0.110959,2.80078179960044,1.39130995937244,-0.139414566322611
-9.607601,0.447951,-1.511383,-0.010912,-0.005391,-0.010069,0.838529,-0.72207,0.110959,2.80078155525456,1.39131222829856,-0.139392365753278
-9.538691,0.418117,-1.513529,-0.005252,-0.013429,-0.01626,0.838529,-0.72207,0.110959,2.80083883691222,1.39133861765456,-0.139326060751
-9.531137,0.410443,-1.475873,0.002167,-0.004286,-0.015491,0.841278,-0.719474,0.111177,2.80094214286339,1.39134303333383,-0.139244187424944
-9.561871,0.43296,-1.467197,0.002231,-0.00744,-0.012625,0.841278,-0.719474,0.111177,2.80099853440389,1.39135228357106,-0.139197814065889
-9.554187,0.433078,-1.48257,0.008275,-0.01324,-0.015889,0.841278,-0.719474,0.111177,2.80108573097967,1.39137790498283,-0.139135488410944
-9.54677,0.471239,-1.512589,0.007967,-0.015138,-0.015265,0.841278,-0.719474,0.111177,2.80115533465144,1.39140748828867,-0.139090249514944
-9.538985,0.456134,-1.520585,0.013998,-0.012368,-0.019079,0.83308,-0.730036,0.10784,2.801297683585,1.39143398236433,-0.139013559812389
-9.577364,0.493896,-1.541868,0.01791,-0.013661,-0.016823,0.83308,-0.730036,0.10784,2.80141924566472,1.39146136655717,-0.138940779644056
-9.585426,0.531711,-1.510779,0.025643,-0.012145,-0.016456,0.83308,-0.730036,0.10784,2.8015623625425,1.39148489357561,-0.138865748002889
-9.600783,0.546811,-1.517774,0.030199,-0.01503,-0.014217,0.83308,-0.730036,0.10784,2.8016745173055,1.39151334241839,-0.138833738691444
-9.59308,0.554609,-1.555812,0.043536,-0.017333,-0.007759,0.833398,-0.716661,0.110759,2.80172080339817,1.39154208796689,-0.138923623072
-9.600607,0.539324,-1.548244,0.053158,-0.016803,-0.00933,0.833398,-0.716661,0.110759,2.80181866392667,1.39157064152933,-0.138964481195278
-9.61531,0.49378,-1.594049,0.061504,-0.022927,-0.010337,0.833398,-0.716661,0.110759,2.80192233639667,1.39161446670983,-0.139020645843167
-9.5919,0.448518,-1.633217,0.068137,-0.016685,-0.016044,0.833398,-0.716661,0.110759,2.802145598726,1.391648343522,-0.138972125730944
-9.554009,0.471566,-1.618669,0.070817,-0.021752,-0.011263,0.846317,-0.727533,0.111318,2.80228543438756,1.391690440828,-0.139045586577111
-9.51561,0.464472,-1.672867,0.06712,-0.024629,-0.018392,0.846317,-0.727533,0.111318,2.80250031914356,1.39174499977433,-0.139002983126056
-9.52344,0.494856,-1.68743,0.067455,-0.027168,-0.017773,0.846317,-0.727533,0.111318,2.80269638926611,1.39180502159661,-0.138980363678056
-9.546148,0.487184,-1.717327,0.064285,-0.025534,-0.015512,0.846317,-0.727533,0.111318,2.80286264919022,1.3918593012905,-0.138979997159222
-9.5839,0.464275,-1.769829,0.066566,-0.016976,-0.014122,0.846501,-0.722232,0.111437,2.80305137148283,1.39189247997156,-0.138968722341778
-9.621957,0.464049,-1.791647,0.064025,-0.018847,-0.012539,0.846501,-0.722232,0.111437,2.80320900948772,1.39192853844344,-0.138976436690556
-9.621791,0.441228,-1.784377,0.069155,-0.012235,-0.013417,0.846501,-0.722232,0.111437,2.80342129370533,1.39194972672267,-0.138941669761222
-9.644501,0.410568,-1.761459,0.062767,-0.008663,-0.011145,0.846501,-0.722232,0.111437,2.80360437858922,1.39196060011472,-0.138920341855778
-9.598512,0.388174,-1.770517,0.064089,-0.011202,-0.009563,0.836338,-0.716961,0.105673,2.80375463385761,1.39197627315817,-0.138846968276
-9.598531,0.380493,-1.747851,0.052669,-0.013369,-0.016708,0.836338,-0.716961,0.105673,2.80396353213933,1.39200285450022,-0.138773751775722
-9.622198,0.456146,-1.708255,0.048787,-0.007941,-0.017622,0.836338,-0.716961,0.105673,2.804199570268,1.39201739308061,-0.138663097994611
-9.606794,0.448755,-1.731516,0.040654,-0.008527,-0.021521,0.836338,-0.716961,0.105673,2.80446351618783,1.39203652187306,-0.138503417956222
-9.622853,0.516789,-1.669445,0.038347,-0.008842,-0.024103,0.833214,-0.721962,0.110641,2.80474959286389,1.39205877480222,-0.138353459393556
-9.615326,0.532074,-1.677013,0.035491,-0.009116,-0.022184,0.833214,-0.721962,0.110641,2.80500669709883,1.3920798409085,-0.138187618348111
-9.615455,0.547269,-1.676799,0.03046,-0.009342,-0.01673,0.833214,-0.721962,0.110641,2.80517897840378,1.39209692766744,-0.138095185789
-9.59247,0.532232,-1.669995,0.024331,-0.003571,-0.017333,0.833214,-0.721962,0.110641,2.80537019651511,1.39210087210822,-0.137967951394
-9.592405,0.524634,-1.670102,0.026311,-0.010559,-0.015149,0.838437,-0.724721,0.1109,2.80550156733694,1.39211977400806,-0.137941020986389
-9.592184,0.501869,-1.678013,0.019852,-0.007328,-0.016103,0.838437,-0.724721,0.1109,2.80564838430961,1.39213157242383,-0.137847506324056
-9.630122,0.471113,-1.662305,0.019803,-0.007665,-0.018359,0.838437,-0.724721,0.1109,2.80582307416689,1.39214602373783,-0.1377255777255
-9.637501,0.448313,-1.677617,0.022602,-0.006457,-0.022845,0.838437,-0.724721,0.1109,2.80606892103767,1.39216133026244,-0.137538426227889
-9.599326,0.41801,-1.618273,0.015956,-0.002856,-0.01768,0.843752,-0.724829,0.111218,2.80624280804417,1.39216410533361,-0.137429343241778
-9.591616,0.395168,-1.588421,0.014263,-0.001916,-0.02154,0.843752,-0.724829,0.111218,2.80647148088961,1.39216757853589,-0.137238474196
-9.568925,0.418147,-1.588673,0.008735,-0.001882,-0.024134,0.843752,-0.724829,0.111218,2.80672041699056,1.39217311122494,-0.137012960393833
-9.599493,0.417844,-1.572728,0.015579,-0.005729,-0.020288,0.843752,-0.724829,0.111218,2.80691868622611,1.39218456057517,-0.136856334679056
-9.576876,0.433086,-1.535133,0.008379,-0.00443,-0.025771,0.8279,-0.721854,0.110322,2.80717228235222,1.39219770289333,-0.136672796009944
-9.577402,0.478534,-1.496537,0.006785,-0.003456,-0.025119,0.8279,-0.721854,0.110322,2.80742214347689,1.39220773852806,-0.136441400453167
-9.56958,0.47879,-1.549863,0.005404,-0.008875,-0.02937,0.8279,-0.721854,0.110322,2.807699615687,1.39223404061767,-0.136178431916889
-9.600525,0.51642,-1.518202,0.008974,-0.008265,-0.028059,0.8279,-0.721854,0.110322,2.80797169483428,1.392257811982,-0.135930019414278
-9.554498,0.509388,-1.57259,0.011183,-0.009253,-0.029998,0.832748,-0.727017,0.115768,2.808265416046,1.39228589430594,-0.135819906684778
-9.554876,0.547321,-1.556873,0.009945,-0.007953,-0.027732,0.832748,-0.727017,0.115768,2.80853721594083,1.39230863592689,-0.135574269253333
-9.570315,0.585325,-1.593911,0.015515,-0.007338,-0.023197,0.832748,-0.727017,0.115768,2.80876636002478,1.39232621137761,-0.135386088012333
-9.555197,0.608297,-1.609153,0.015409,-0.012138,-0.028079,0.832748,-0.727017,0.115768,2.80903753160161,1.39235909335294,-0.135154954254722
-9.547901,0.631013,-1.571069,0.021183,-0.009024,-0.02899,0.841512,-0.716946,0.108614,2.80934551214128,1.39238553506878,-0.134838631048278
-9.510047,0.661686,-1.564005,0.030603,-0.00686,-0.025072,0.841512,-0.716946,0.108614,2.80963928571283,1.39240347703833,-0.134623117974278
-9.525838,0.714663,-1.540102,0.038077,-0.006907,-0.021824,0.841512,-0.716946,0.108614,2.80990900866761,1.39241887082933,-0.134451046108667
-9.487541,0.699805,-1.548861,0.0404,-0.015159,-0.01869,0.841512,-0.716946,0.108614,2.8101062307065,1.39245122920633,-0.134358526283167
-9.448793,0.631763,-1.55837,0.044696,-0.018017,-0.013562,0.835631,-0.716347,0.118787,2.81022915414189,1.39248655464056,-0.134505954120556
-9.494228,0.608737,-1.595499,0.040125,-0.018634,-0.01648,0.835631,-0.716347,0.118787,2.8103811198315,1.3925253183705,-0.134458760457444
-9.485817,0.532961,-1.634714,0.044966,-0.023122,-0.015873,0.835631,-0.716347,0.118787,2.810516993599,1.39257418754828,-0.134440172716611
-9.492992,0.502702,-1.688086,0.041382,-0.017388,-0.017756,0.835631,-0.716347,0.118787,2.81069454579383,1.39261104887094,-0.134370150166167
-9.508119,0.487383,-1.687918,0.048457,-0.015555,-0.018033,0.832889,-0.72714,0.113145,2.81089717834883,1.39264412283233,-0.134384357134278
-9.515617,0.495113,-1.740756,0.051353,-0.019078,-0.018062,0.832889,-0.72714,0.113145,2.81109616316878,1.39268520784822,-0.1343178950525
-9.531067,0.517782,-1.740053,0.055454,-0.013432,-0.021848,0.832889,-0.72714,0.113145,2.81138063414328,1.3927160128835,-0.134174970160778
-9.56929,0.517389,-1.716326,0.066721,-0.012907,-0.021801,0.832889,-0.72714,0.113145,2.81169512475555,1.39274552637622,-0.134030195221611
-9.523266,0.464382,-1.665085,0.06125,-0.008087,-0.021772,0.833024,-0.719066,0.115945,2.81201272205128,1.39276395703756,-0.133967869566667
-9.500843,0.502418,-1.627169,0.062273,-0.015379,-0.019272,0.833024,-0.719066,0.115945,2.81227185086644,1.39279725789156,-0.1338680193645
-9.493657,0.548011,-1.611536,0.051538,-0.014044,-0.024443,0.833024,-0.719066,0.115945,2.81257820825128,1.39283157103567,-0.133692928081833
-9.501275,0.563283,-1.649086,0.045736,-0.009864,-0.024738,0.833024,-0.719066,0.115945,2.81289280358322,1.39285623251717,-0.133494728659389
-9.577573,0.57797,-1.677325,0.043595,-0.011395,-0.019606,0.825101,-0.721677,0.112786,2.81312332647611,1.39288066710606,-0.133446348173389
-9.569318,0.517361,-1.708735,0.033657,-0.016048,-0.017762,0.825101,-0.721677,0.112786,2.81328831231094,1.39291431702561,-0.133369483938056
-9.577019,0.53255,-1.723512,0.031865,-0.010381,-0.026076,0.825101,-0.721677,0.112786,2.81358370903733,1.39294124743322,-0.133155559112333
-9.568994,0.50236,-1.762085,0.022213,-0.011238,-0.025798,0.825101,-0.721677,0.112786,2.81384756769078,1.39296997552844,-0.132949174102611
-9.561551,0.517562,-1.74688,0.007015,-0.010163,-0.029056,0.840996,-0.719228,0.116423,2.81411688922017,1.3929990701425,-0.132768131252222
-9.577018,0.555538,-1.776327,-0.001922,-0.008781,-0.025528,0.840996,-0.719228,0.116423,2.81432798661489,1.39302174195033,-0.132554049347
-9.615702,0.615982,-1.766926,-0.015434,-0.003886,-0.025193,0.840996,-0.719228,0.116423,2.81452281755472,1.39303254552928,-0.132322165098444
-9.592762,0.616223,-1.78268,-0.016127,-0.004849,-0.027461,0.840996,-0.719228,0.116423,2.81474152457856,1.3930474506285,-0.132064258012722
-9.593094,0.638878,-1.744405,-0.01439,-0.002596,-0.021634,0.83079,-0.71938,0.107918,2.814894170946,1.3930524771725,-0.131819563058278
-9.608406,0.638698,-1.728842,-0.012136,0.00405,-0.021552,0.83079,-0.71938,0.107918,2.81508476073933,1.39304156887389,-0.131600367342667
-9.593169,0.631141,-1.706558,-0.006264,0.00307,-0.018003,0.83079,-0.71938,0.107918,2.81523885572883,1.39303010207039,-0.131433164941556
-9.562408,0.608651,-1.722824,0.000439,0.001716,-0.020574,0.83079,-0.71938,0.107918,2.8154375089365,1.39302390615678,-0.131237705683722
-9.58557,0.608188,-1.646343,0.006816,0.000362,-0.023462,0.835589,-0.72177,0.116045,2.81567962080583,1.39302353963794,-0.131117033721167
-9.623489,0.585113,-1.6533,0.013274,-0.006046,-0.022544,0.835589,-0.72177,0.116045,2.81590178357867,1.39303729282083,-0.1309303185555
-9.638929,0.600129,-1.637523,0.016214,-0.003519,-0.020573,0.835589,-0.72177,0.116045,2.816116563615,1.39304348873444,-0.130758543395611
-9.639105,0.607616,-1.607053,0.021289,-0.000102,-0.024059,0.835589,-0.72177,0.116045,2.81640522337617,1.39304434394506,-0.130524617113556
-9.639132,0.630575,-1.652277,0.027131,0.003669,-0.021744,0.833115,-0.716415,0.116005,2.81669027030883,1.39303470973572,-0.130387573976444
-9.670142,0.675803,-1.620508,0.026781,-0.003642,-0.023109,0.833115,-0.716415,0.116005,2.81696440894289,1.39304317457544,-0.130182358336333
-9.662771,0.706256,-1.620271,0.03317,-0.003404,-0.025337,0.833115,-0.716415,0.116005,2.81728499074911,1.39305286114461,-0.129946163128167
-9.601785,0.691389,-1.576468,0.037097,-0.001192,-0.022406,0.833115,-0.716415,0.116005,2.81758654848256,1.39305493808467,-0.129739289426667
-9.586999,0.737016,-1.553435,0.045929,-0.003449,-0.015961,0.83284,-0.724367,0.115827,2.817810508943,1.39305755607633,-0.129738451669333
-9.61005,0.736664,-1.507318,0.052333,-0.005428,-0.017569,0.83284,-0.724367,0.115827,2.81806759572467,1.39306581147672,-0.129615458420833
-9.609876,0.70619,-1.484973,0.046918,-0.00853,-0.015047,0.83284,-0.724367,0.115827,2.818264154539,1.39307940758011,-0.129540199887056
-9.594592,0.706342,-1.492946,0.044105,-0.002757,-0.011131,0.83284,-0.724367,0.115827,2.81842753467228,1.39307621363028,-0.129491505242056
-9.602359,0.706141,-1.454801,0.038333,-0.004598,-0.010204,0.835405,-0.727071,0.115927,2.81855143549122,1.39307696412122,-0.129566816135667
-9.594418,0.675868,-1.470601,0.036282,0.00046,-0.01563,0.835405,-0.727071,0.115927,2.8187688509725,1.39306972101094,-0.129443351648667
-9.586901,0.675818,-1.440429,0.033729,-0.004905,-0.014732,0.835405,-0.727071,0.115927,2.81894434368056,1.3930744683025,-0.129356015446667
-9.571976,0.721584,-1.455351,0.032615,-0.0115,-0.006758,0.835405,-0.727071,0.115927,2.81898268853183,1.39308853564439,-0.129405181330167
-9.563832,0.660864,-1.456397,0.035772,-0.006472,-0.009593,0.843844,-0.722178,0.111277,2.81908451095439,1.39309309094989,-0.129344059951389
-9.532786,0.608011,-1.480682,0.037709,-0.006487,-0.009269,0.843844,-0.722178,0.111277,2.81919087122917,1.39309726228328,-0.129337061187
-9.578425,0.592444,-1.479751,0.038416,-0.012507,-0.006434,0.843844,-0.722178,0.111277,2.81923499311539,1.39311345892506,-0.129395075882333
-9.578249,0.584957,-1.510221,0.029983,-0.008956,-0.009321,0.843844,-0.722178,0.111277,2.81931183989744,1.39312351201306,-0.129398444364944
-9.593256,0.562096,-1.525341,0.028974,-0.012455,-0.011295,0.830508,-0.719135,0.113163,2.81939238677439,1.39314368800217,-0.129416421241056
-9.600451,0.524156,-1.556049,0.024389,-0.013075,-0.01486,0.830508,-0.719135,0.113163,2.81951024875922,1.39316791315172,-0.129363904328222
-9.600395,0.524212,-1.57123,0.021863,-0.015256,-0.012639,0.830508,-0.719135,0.113163,2.81958287184806,1.39319554169044,-0.129350936542833
-9.584834,0.501653,-1.602296,0.017705,-0.015841,-0.011374,0.830508,-0.719135,0.113163,2.81962580691139,1.39322357165456,-0.129357551335111
-9.600035,0.501585,-1.617096,0.007999,-0.01005,-0.013596,0.837872,-0.724229,0.121391,2.819694206307,1.3932400300955,-0.129490545311778
-9.569577,0.524765,-1.655493,0.000796,-0.017009,-0.019171,0.837872,-0.724229,0.121391,2.81979279987317,1.39327697868456,-0.129397693874
-9.577472,0.562747,-1.669949,-0.002184,-0.006214,-0.022924,0.837872,-0.724229,0.121391,2.81998115564694,1.39329130782561,-0.129206039430722
-9.585561,0.600535,-1.631269,-0.00853,-0.004532,-0.018739,0.837872,-0.724229,0.121391,2.82010577205028,1.39329830659,-0.129063062179167
-9.570996,0.668927,-1.600325,-0.014345,-0.008292,-0.019763,0.843794,-0.719405,0.11396,2.82020860676294,1.393315271176,-0.128908338871667
-9.570986,0.684261,-1.638065,-0.014381,-0.010211,-0.021393,0.843794,-0.719405,0.11396,2.82032873767389,1.39333783826417,-0.128755046732944
-9.586297,0.707069,-1.675316,-0.017979,-0.008928,-0.023965,0.843794,-0.719405,0.11396,2.82047955144717,1.39335939306222,-0.128561437522556
-9.616818,0.714475,-1.689627,-0.023912,-0.004997,-0.01557,0.843794,-0.719405,0.11396,2.82052180583267,1.39336499556439,-0.128463053395722
-9.578844,0.714618,-1.645037,-0.019783,-0.006006,-0.018144,0.84072,-0.727179,0.116245,2.82059924602617,1.39337534535811,-0.128419036229167
-9.624539,0.698996,-1.628923,-0.030034,-0.006526,-0.015929,0.84072,-0.727179,0.116245,2.82062422166667,1.3933848573945,-0.128322641776
-9.601397,0.668791,-1.629924,-0.021085,-0.013303,-0.018873,0.84072,-0.727179,0.116245,2.82068075283339,1.39341276518567,-0.128216944725778
-9.609265,0.683813,-1.599156,-0.017556,-0.009531,-0.019463,0.84072,-0.727179,0.116245,2.82077049758772,1.39343219068383,-0.128086446567833
-9.616986,0.691321,-1.591267,-0.015016,-0.007663,-0.021043,0.838345,-0.727371,0.110841,2.82089137898961,1.3934486316715,-0.127917045053722
-9.617364,0.729254,-1.575551,-0.015911,-0.004136,-0.017786,0.838345,-0.727371,0.110841,2.8209868135125,1.39345393746794,-0.1277849586475
-9.602301,0.752171,-1.575612,-0.012069,-0.007037,-0.01877,0.838345,-0.727371,0.110841,2.82109212659061,1.39346688780006,-0.127652592988833
-9.617611,0.774979,-1.612863,-0.005156,-0.010861,-0.011704,0.838345,-0.727371,0.110841,2.82110439624489,1.39348336369428,-0.127632312280056
-9.61002,0.782667,-1.620538,-0.001587,-0.009298,-0.010387,0.841094,-0.724775,0.111059,2.82111057470522,1.39349526682972,-0.127603025679944
-9.647726,0.744479,-1.650481,0.003226,-0.015386,-0.011082,0.841094,-0.724775,0.111059,2.82111567106233,1.393521987798,-0.127611315986889
-9.608813,0.653616,-1.65272,0.016094,-0.015193,-0.011364,0.841094,-0.724775,0.111059,2.82115752402244,1.39354846442039,-0.127614946268667
-9.623736,0.630838,-1.690613,0.008892,-0.016121,-0.016872,0.841094,-0.724775,0.111059,2.82125027074056,1.39358146856867,-0.127548588906556
-9.631116,0.608038,-1.705924,-0.001303,-0.01408,-0.012056,0.833299,-0.711115,0.116123,2.82125789782294,1.39360611259689,-0.127588452193
-9.654054,0.630784,-1.742985,-0.004202,-0.015642,-0.012081,0.833299,-0.711115,0.116123,2.82125655392056,1.39363421237411,-0.127584420485833
-9.669484,0.661135,-1.764947,-0.006183,-0.015959,-0.014343,0.833299,-0.711115,0.116123,2.82127884175628,1.39366486032989,-0.127551363977722
-9.707475,0.676298,-1.839687,-0.002112,-0.014773,-0.019465,0.833299,-0.711115,0.116123,2.82138443408683,1.39369671256183,-0.127443991412833
-9.684563,0.676512,-1.84785,0.002856,-0.013817,-0.013,0.830409,-0.713588,0.118527,2.82141578017372,1.39372153112283,-0.127537767874333
-9.699579,0.661303,-1.878045,0.009902,-0.010724,-0.014552,0.830409,-0.713588,0.118527,2.82150412866583,1.39373989197106,-0.127478444183167
-9.706894,0.630906,-1.893464,0.011911,-0.010399,-0.011002,0.830409,-0.713588,0.118527,2.82155184592728,1.39375470980389,-0.127465511304333
-9.67595,0.570289,-1.872311,0.011876,-0.009456,-0.012605,0.830409,-0.713588,0.118527,2.82162490534806,1.39376855025317,-0.127426747574389
-9.728922,0.516643,-1.864133,0.009526,-0.003438,-0.017054,0.830508,-0.719135,0.113163,2.82177280442394,1.39377181401611,-0.127333861230056
-9.721368,0.531956,-1.879291,0.005613,-0.005323,-0.019341,0.830508,-0.719135,0.113163,2.82193773789894,1.39378113406644,-0.127185839981222
-9.721524,0.547124,-1.871486,-0.008571,-0.0017,-0.020315,0.830508,-0.719135,0.113163,2.82209605658167,1.39378260014178,-0.127008532132278
-9.698898,0.5777,-1.871631,-0.010425,-0.001971,-0.016782,0.830508,-0.719135,0.113163,2.8222016663655,1.3937819543705,-0.126880041101278
-9.722491,0.66109,-1.869882,-0.009845,-0.003906,-0.019694,0.843978,-0.714104,0.114078,2.82233441599628,1.39378830736361,-0.126704234234222
-9.707723,0.722023,-1.876999,-0.010509,0.00181,-0.020597,0.843978,-0.714104,0.114078,2.8225070289135,1.39378165766478,-0.126507465980556
-9.692937,0.76765,-1.853966,0.00003,0.002314,-0.024418,0.843978,-0.714104,0.114078,2.82275887971183,1.39377682310683,-0.126256976537889
-9.670302,0.790574,-1.839037,0.002465,-0.003358,-0.016102,0.843978,-0.714104,0.114078,2.82288161116117,1.39377890004689,-0.126143844391333
-9.647299,0.76023,-1.802083,0.006666,0.000736,-0.015401,0.835773,-0.71647,0.116164,2.82301851467206,1.39377092389894,-0.126087033972167
-9.685338,0.744697,-1.793752,0.006975,0.00803,-0.015962,0.835773,-0.71647,0.116164,2.82320049999944,1.39374586099206,-0.125925154820778
-9.677545,0.721938,-1.786673,0.012761,-0.001236,-0.016368,0.835773,-0.71647,0.116164,2.82336176828611,1.39374312082744,-0.125799019982278
-9.631482,0.684293,-1.780763,0.008905,0.000394,-0.016045,0.835773,-0.71647,0.116164,2.82351622979444,1.393736244236,-0.125670005352944
-9.646517,0.661404,-1.788292,0.008954,-0.001496,-0.013813,0.838522,-0.713873,0.116382,2.82362803549189,1.39373226488867,-0.125623440007833
-9.623485,0.654075,-1.811745,0.008589,-0.001824,-0.015751,0.838522,-0.713873,0.116382,2.82376809804606,1.39373041484122,-0.1255082483745
-9.653823,0.623353,-1.788636,0.005322,-0.002764,-0.018025,0.838522,-0.713873,0.116382,2.8239260851165,1.39373257904767,-0.1253665626655
-9.623292,0.631282,-1.812066,0.011179,0.001331,-0.015065,0.838522,-0.713873,0.116382,2.82407726540861,1.39372270049244,-0.125246641193889
-9.593149,0.66181,-1.782038,0.012803,0.00037,-0.014426,0.838246,-0.721824,0.116205,2.8242147972375,1.39371477670433,-0.125212101157167
-9.600684,0.654178,-1.789545,0.012824,-0.000258,-0.013467,0.838246,-0.721824,0.116205,2.82434194436611,1.39370742887439,-0.125120785607833
-9.608286,0.631156,-1.74413,0.015995,0.003823,-0.015665,0.838246,-0.721824,0.116205,2.82452396460005,1.39369208744322,-0.124981787703611
-9.638687,0.631019,-1.77373,0.012195,-0.000883,-0.012831,0.838246,-0.721824,0.116205,2.82463835338261,1.39368571699683,-0.124901851691389
-9.668737,0.592922,-1.811455,0.015049,0.000659,-0.014736,0.83554,-0.718997,0.118727,2.82478663643061,1.39367735687678,-0.124898064330111
-9.653565,0.592962,-1.789064,0.018919,-0.00128,-0.014423,0.83554,-0.718997,0.118727,2.82493722331128,1.39367316809011,-0.124798423567278
-9.645862,0.600761,-1.827102,0.024061,-0.001015,-0.014725,0.83554,-0.718997,0.118727,2.82510582197461,1.39366857787806,-0.124693546821111
-9.652688,0.532541,-1.8886,0.024081,-0.001963,-0.013773,0.83554,-0.718997,0.118727,2.82525770039783,1.39366548864789,-0.124605687020778
-9.698473,0.547476,-1.917604,0.031099,-0.000151,-0.016624,0.833115,-0.716415,0.116005,2.82546792512867,1.39366042719733,-0.124518001753222
-9.652512,0.525054,-1.919071,0.027585,-0.002962,-0.015382,0.833115,-0.716415,0.116005,2.82564558204317,1.39366096824894,-0.124412863207889
-9.667897,0.540126,-1.918475,0.030497,0.00527,-0.014637,0.833115,-0.716415,0.116005,2.82585633037233,1.393641368218,-0.124281509839333
-9.675921,0.593304,-1.932717,0.034037,0.002059,-0.014657,0.833115,-0.716415,0.116005,2.82606224414356,1.39362939526944,-0.124164066733167
-9.652825,0.55539,-1.903461,0.042303,0.005119,-0.019428,0.83843,-0.716524,0.116323,2.82636059047389,1.39361393166533,-0.123998103514778
-9.614382,0.51003,-1.882285,0.036642,0.000144,-0.013389,0.83843,-0.716524,0.116323,2.82654784669117,1.39360551918544,-0.123906229460556
-9.652743,0.532486,-1.873419,0.030799,0.004944,-0.015606,0.83843,-0.716524,0.116323,2.82677065523528,1.39358742013639,-0.123763374381944
-9.637552,0.540207,-1.873694,0.020449,0.004075,-0.017905,0.83843,-0.716524,0.116323,2.82699431899,1.39357314335517,-0.123593379456389
-9.615008,0.593688,-1.903881,0.021701,0.00151,-0.019537,0.838147,-0.716278,0.121569,2.82722653485083,1.39356638893667,-0.123529448099889
-9.592263,0.593735,-1.8665,0.015944,0.011107,-0.017843,0.838147,-0.716278,0.121569,2.827468384921,1.3935353395555,-0.123329538256222
-9.599807,0.593757,-1.889081,0.018441,0.013912,-0.021345,0.838147,-0.716278,0.121569,2.82777495174517,1.39350032828028,-0.123070217455
-9.637928,0.601128,-1.910792,0.016285,0.01206,-0.016863,0.838147,-0.716278,0.121569,2.8280085813215,1.39346624202878,-0.122879522942
-9.629914,0.555603,-1.911625,0.01117,0.014028,-0.015252,0.83279,-0.721593,0.118509,2.82821142331583,1.39342630892922,-0.122792308912944
-9.583667,0.502819,-1.92111,0.00786,0.017205,-0.019418,0.83279,-0.721593,0.118509,2.8284798198215,1.39338194269711,-0.122544891247167
-9.583501,0.479998,-1.91384,0.010141,0.010842,-0.018194,0.83279,-0.721593,0.118509,2.828710255448,1.39335176597983,-0.1223418398135
-9.606375,0.495146,-1.951007,-0.000322,0.017551,-0.025558,0.83279,-0.721593,0.118509,2.82904089034222,1.39331125692211,-0.1220104020685
-9.583759,0.510389,-1.913412,-0.007325,0.014474,-0.022075,0.833207,-0.713765,0.116064,2.82928996606939,1.393275372983,-0.121746246709333
-9.614059,0.495029,-1.935635,-0.011524,0.017365,-0.0227,0.833207,-0.713765,0.116064,2.82955363273678,1.39323310114422,-0.121454392998333
-9.591451,0.517924,-1.913114,-0.011187,0.023719,-0.021986,0.833207,-0.713765,0.116064,2.82983567770567,1.39317513880872,-0.121144719490722
-9.614538,0.548185,-1.927295,-0.01673,0.023111,-0.025228,0.833207,-0.713765,0.116064,2.83014404221744,1.39312110346072,-0.120794222766389
-9.60703,0.555789,-1.912198,-0.009942,0.024644,-0.0239,0.832698,-0.724244,0.11845,2.83045326193983,1.39306242554083,-0.120546997086667
-9.622359,0.570916,-1.926783,-0.01424,0.019246,-0.029124,0.832698,-0.724244,0.11845,2.83080260674783,1.39302052022089,-0.120161174928111
-9.65311,0.60874,-1.948257,-0.013805,0.024996,-0.023905,0.832698,-0.724244,0.11845,2.83110817873517,1.39296091727728,-0.119820940731111
-9.630161,0.601329,-1.948937,-0.006773,0.023959,-0.026148,0.832698,-0.724244,0.11845,2.83145640653339,1.39290548566706,-0.119455224748556
-9.622671,0.624239,-1.963989,-0.005508,0.016953,-0.027185,0.83279,-0.721593,0.118509,2.83178684944156,1.39286750733461,-0.119180475249778
-9.645814,0.631457,-1.910173,-0.001034,0.020073,-0.028744,0.83279,-0.721593,0.118509,2.832166946925,1.39282324582217,-0.118796956923889
-9.638416,0.661937,-1.917527,-0.001069,0.021648,-0.030335,0.83279,-0.721593,0.118509,2.83257448096111,1.39277641867789,-0.118385443540444
-9.653488,0.646674,-1.932541,0.000366,0.024544,-0.023538,0.83279,-0.721593,0.118509,2.83290766403389,1.39271751386539,-0.118053150584833
-9.645888,0.646708,-1.925141,0.00707,0.030493,-0.026026,0.846028,-0.71909,0.121987,2.83331057295139,1.39264628703878,-0.117736251420222
-9.684498,0.691901,-1.900772,0.019281,0.025285,-0.027003,0.846028,-0.71909,0.121987,2.83373950470605,1.39258818507706,-0.117354705314722
-9.684802,0.714583,-1.870088,0.023894,0.028137,-0.022126,0.846028,-0.71909,0.121987,2.83412717691206,1.39251957624211,-0.117026793131833
-9.654097,0.692038,-1.871172,0.025378,0.032525,-0.027871,0.846028,-0.71909,0.121987,2.83461262238017,1.39244482385339,-0.116603289346556
-9.66951,0.707082,-1.862986,0.025224,0.024648,-0.020229,0.843518,-0.727356,0.113782,2.83495901758422,1.39238289962383,-0.116284505227944
-9.646727,0.722491,-1.870935,0.025504,0.028759,-0.022115,0.843518,-0.727356,0.113782,2.83535232719894,1.39231273744717,-0.115954934983667
-9.62375,0.715107,-1.879206,0.017141,0.028526,-0.021826,0.843518,-0.727356,0.113782,2.83571964888306,1.39224287197622,-0.115630513456333
-9.624055,0.737789,-1.848522,0.012516,0.030116,-0.027296,0.843518,-0.727356,0.113782,2.83615400860711,1.39217332066428,-0.115226225729889
-9.63956,0.760403,-1.832637,0.009445,0.030833,-0.020536,0.841229,-0.716701,0.113859,2.83648987948467,1.39209673568139,-0.114844295652278
-9.608984,0.753053,-1.833508,0.006205,0.033399,-0.021486,0.841229,-0.716701,0.113859,2.836844774435,1.39201493216844,-0.114504707226556
-9.57825,0.730535,-1.842184,0.004582,0.034681,-0.022124,0.841229,-0.716701,0.113859,2.8372090417955,1.39193054557039,-0.114151487790889
-9.501418,0.662747,-1.837465,0.008123,0.035921,-0.022106,0.841229,-0.716701,0.113859,2.83758671327333,1.39184315700856,-0.113793625783333
-9.531839,0.631942,-1.791584,0.002736,0.03378,-0.018284,0.840762,-0.721756,0.118987,2.83788656058556,1.39175786284006,-0.113538109796667
-9.5468,0.593802,-1.784147,0.004506,0.03688,-0.02565,0.840762,-0.721756,0.118987,2.83830515999978,1.39167078843722,-0.1131294412975
-9.569906,0.616381,-1.775662,0.005514,0.031804,-0.023768,0.840762,-0.721756,0.118987,2.83868019603267,1.39159439544039,-0.112767617395889
-9.592429,0.593569,-1.820955,0.002945,0.034687,-0.023423,0.840762,-0.721756,0.118987,2.83905580802372,1.39151082914639,-0.112398672556944
-9.584756,0.578352,-1.798587,0.002023,0.040745,-0.021429,0.833066,-0.713642,0.118687,2.83942269337589,1.39141117093028,-0.112054982610944
-9.539319,0.624366,-1.814273,0.003805,0.035596,-0.028241,0.833066,-0.713642,0.118687,2.83986684438878,1.39132896599194,-0.111618545946833
-9.546864,0.624387,-1.836854,0.006716,0.035572,-0.027587,0.833066,-0.713642,0.118687,2.84030918026078,1.39124630726839,-0.111191359519944
-9.539107,0.609253,-1.837259,0.008626,0.032689,-0.028579,0.833066,-0.713642,0.118687,2.8407571535415,1.39117122326739,-0.110763265522611
-9.508853,0.639892,-1.837595,0.01633,0.035149,-0.029492,0.840755,-0.713559,0.12441,2.84124106312117,1.39109083346994,-0.1104009703825
-9.539485,0.647186,-1.821543,0.021845,0.034157,-0.027551,0.840755,-0.713559,0.12441,2.84171378514978,1.39101140360278,-0.109981306318333
-9.523997,0.639879,-1.867576,0.025671,0.031884,-0.029174,0.840755,-0.713559,0.12441,2.842207782724,1.39093858852789,-0.109549756572
-9.524007,0.624545,-1.829836,0.021901,0.035447,-0.024963,0.840755,-0.713559,0.12441,2.84265109597956,1.39085411466344,-0.109160112145611
-9.58505,0.616368,-1.805643,0.019593,0.03767,-0.027519,0.827242,-0.724013,0.120754,2.84312573786872,1.39076608033033,-0.1088235780435
-9.554152,0.57103,-1.807049,0.017913,0.04052,-0.030716,0.827242,-0.724013,0.120754,2.84365424057311,1.39067364777122,-0.108337207551667
-9.599974,0.59359,-1.843536,0.018934,0.035446,-0.02819,0.827242,-0.724013,0.120754,2.8441312212015,1.39059142537961,-0.107905797431556
-9.600141,0.593424,-1.797992,0.018642,0.043082,-0.026819,0.827242,-0.724013,0.120754,2.8446197384465,1.39048993456933,-0.107461925671111
-9.546579,0.571036,-1.792058,0.019866,0.04178,-0.02973,0.835356,-0.724298,0.118609,2.84513900836694,1.39039345284978,-0.107010583907778
-9.485666,0.571421,-1.763222,0.021162,0.04749,-0.029345,0.835356,-0.724298,0.118609,2.8456834808205,1.3902831655875,-0.106516219814722
-9.478214,0.57897,-1.732943,0.019182,0.040824,-0.031678,0.835356,-0.724298,0.118609,2.84622636502578,1.39019047122922,-0.106018417425944
-9.508956,0.60914,-1.739342,0.016713,0.048822,-0.026766,0.835356,-0.724298,0.118609,2.84673003171589,1.39007503525,-0.105554195143611
-9.470687,0.594255,-1.740511,0.014759,0.04312,-0.027804,0.840989,-0.711031,0.121846,2.84721451725372,1.38997373642578,-0.105103568964667
-9.440351,0.601989,-1.710805,0.015083,0.048517,-0.027745,0.840989,-0.711031,0.121846,2.84772453693694,1.38985966180222,-0.104628735089444
-9.455985,0.639798,-1.694706,0.016749,0.047251,-0.025175,0.840989,-0.711031,0.121846,2.84819947553183,1.38974670418844,-0.104193764500667
-9.433027,0.624733,-1.680311,0.015671,0.047858,-0.030325,0.840989,-0.711031,0.121846,2.84874085875522,1.38963598059422,-0.103688527015556
-9.441016,0.647298,-1.634255,0.019472,0.044624,-0.033243,0.841271,-0.711277,0.116601,2.84931220925656,1.38953473412983,-0.103072670655889
-9.395387,0.647531,-1.597446,0.014799,0.049491,-0.026125,0.841271,-0.711277,0.116601,2.84980172133839,1.38941697686467,-0.102617925503389
-9.410681,0.632045,-1.551734,0.021847,0.050999,-0.027694,0.841271,-0.711277,0.116601,2.8503346048155,1.3892967063275,-0.102136982980944
-9.433685,0.639402,-1.535872,0.017277,0.046256,-0.030657,0.841271,-0.711277,0.116601,2.85087553425367,1.38918985736094,-0.101636230988222
-9.41819,0.601454,-1.514016,0.022548,0.046884,-0.025162,0.843462,-0.716386,0.121887,2.85135504560733,1.38907731862583,-0.101220127392722
-9.425671,0.57089,-1.48389,0.018293,0.042138,-0.028448,0.843462,-0.716386,0.121887,2.85185253383711,1.38897867269983,-0.100766097824611
-9.425763,0.57846,-1.476192,0.013765,0.034871,-0.029509,0.843462,-0.716386,0.121887,2.85232382469694,1.38889816072944,-0.100327200248333
-9.440762,0.547945,-1.476238,0.009952,0.041593,-0.027195,0.843462,-0.716386,0.121887,2.85278106566817,1.38879984641572,-0.0998928928841111
-9.463442,0.5403,-1.513727,0.004136,0.037829,-0.028221,0.835815,-0.711046,0.118905,2.85321750233228,1.38871100923183,-0.0994255290117778
-9.455381,0.502484,-1.544816,0.003771,0.040674,-0.030125,0.835815,-0.711046,0.118905,2.8536929645255,1.38861691861133,-0.0989569608632778
-9.478218,0.510007,-1.574499,0.006954,0.037136,-0.031762,0.835815,-0.711046,0.118905,2.85418355871056,1.38853240984033,-0.0984810797913889
-9.516349,0.502044,-1.55847,0.005702,0.043193,-0.030088,0.835815,-0.711046,0.118905,2.85467205850228,1.38843215821278,-0.0980041515228333
-9.516387,0.486682,-1.513139,0.014738,0.042479,-0.0291,0.840338,-0.721387,0.126855,2.85516178002344,1.38833283160894,-0.0976599903383333
-9.524062,0.478912,-1.482692,0.016264,0.038942,-0.032996,0.840338,-0.721387,0.126855,2.85569717677256,1.388244744916,-0.0971622054028333
-9.523841,0.456146,-1.490604,0.018832,0.041772,-0.03328,0.840338,-0.721387,0.126855,2.85625295895011,1.38815000852422,-0.0966501960459444
-9.577163,0.440462,-1.474299,0.012331,0.040857,-0.036207,0.840338,-0.721387,0.126855,2.85682645620461,1.38805949582567,-0.0961036466523333
-9.592512,0.447908,-1.46622,0.0142,0.040181,-0.039104,0.838289,-0.716401,0.118946,2.85743452840239,1.38797235160972,-0.0954851024878889
-9.577421,0.470853,-1.473871,0.014892,0.034477,-0.03691,0.838289,-0.716401,0.118946,2.85799832163444,1.38789751195461,-0.0949549242688333
-9.539697,0.493734,-1.413779,0.014544,0.038919,-0.038151,0.838289,-0.716401,0.118946,2.85859365293944,1.38781282865083,-0.0943917593547778
-9.54702,0.47099,-1.444272,0.012045,0.036112,-0.03465,0.838289,-0.716401,0.118946,2.85912623971083,1.38773238649356,-0.0938860506311667
-9.569241,0.402507,-1.467434,0.016802,0.033816,-0.037881,0.832932,-0.721716,0.115886,2.85969898647439,1.38765944924572,-0.0932959727627778
-9.576693,0.394959,-1.497714,0.014078,0.028073,-0.044714,0.832932,-0.721716,0.115886,2.86033608347311,1.38760518700511,-0.0926891397477222
-9.576159,0.341858,-1.521235,0.009306,0.038935,-0.042038,0.832932,-0.721716,0.115886,2.86096679257217,1.38752291225367,-0.0920766693239445
-9.614685,0.387135,-1.519638,0.001902,0.035829,-0.042093,0.832932,-0.721716,0.115886,2.86156756929983,1.38744807259856,-0.0914757878766111
-9.561382,0.395138,-1.513277,-0.00287,0.031135,-0.039587,0.843505,-0.710962,0.124628,2.86210122072117,1.38738262280689,-0.0909504965753333
-9.600028,0.447957,-1.496392,-0.007537,0.038107,-0.046927,0.843505,-0.710962,0.124628,2.86274852788739,1.38730551422567,-0.0902782661284444
-9.623198,0.478134,-1.4878,-0.005956,0.03681,-0.04822,0.843505,-0.710962,0.124628,2.86341121139133,1.38723231517867,-0.0895944467051111
-9.608108,0.501079,-1.495452,-0.005963,0.03395,-0.048574,0.843505,-0.710962,0.124628,2.86406734991611,1.38716616725589,-0.0889172246207778
-9.592999,0.508718,-1.472955,0.001714,0.03513,-0.050789,0.846452,-0.719459,0.114119,2.86477101371628,1.387098378725,-0.0880791356751667
-9.562653,0.531786,-1.480988,0.004695,0.038626,-0.046878,0.846452,-0.719459,0.114119,2.86544802636128,1.38701964698894,-0.0874077778921667
-9.585473,0.524003,-1.480522,0.00699,0.034172,-0.044986,0.846452,-0.719459,0.114119,2.86608943431961,1.38695027020978,-0.0867784650553333
-9.577578,0.48602,-1.466067,0.015555,0.031504,-0.050783,0.846452,-0.719459,0.114119,2.86681702656361,1.38689117341122,-0.0860832486416111
-9.60833,0.500857,-1.434726,0.01748,0.028307,-0.051131,0.843646,-0.711085,0.122006,2.86753711389817,1.386839825868,-0.0853864963394445
-9.539512,0.478594,-1.429174,0.018446,0.03243,-0.051088,0.843646,-0.711085,0.122006,2.86827835460539,1.38677851250317,-0.0846847523998333
-9.56306,0.546704,-1.404866,0.013604,0.033106,-0.051736,0.843646,-0.711085,0.122006,2.86901783253156,1.38671592504906,-0.0839724666804444
-9.593581,0.55411,-1.419177,0.011308,0.024855,-0.053764,0.843646,-0.711085,0.122006,2.86974755407544,1.38667445606106,-0.0832642650280556
-9.570927,0.584714,-1.426913,0.010126,0.027445,-0.04891,0.832875,-0.710746,0.123991,2.87041552592256,1.38662342267683,-0.08266465767
-9.578997,0.630183,-1.410899,0.011708,0.029008,-0.050173,0.832875,-0.710746,0.123991,2.87111404100578,1.38656938732883,-0.0819891983667222
-9.555993,0.622827,-1.42676,0.016606,0.028351,-0.046946,0.832875,-0.710746,0.123991,2.87178033733822,1.38651468875628,-0.0813589605061667
-9.541042,0.645633,-1.396458,0.017502,0.025144,-0.050197,0.832875,-0.710746,0.123991,2.87247907931405,1.38646979892583,-0.0806980048767222
-9.533138,0.599997,-1.366927,0.025306,0.030178,-0.046576,0.838006,-0.716155,0.124191,2.8731629685505,1.38641031815517,-0.0801189225733333
-9.579258,0.614599,-1.304841,0.023153,0.02674,-0.04211,0.838006,-0.716155,0.124191,2.87377627673161,1.38635607336783,-0.0795592134082778
-9.601976,0.591592,-1.296999,0.029353,0.023534,-0.038261,0.838006,-0.716155,0.124191,2.87434366533889,1.38630694239089,-0.0790620044309445
-9.58626,0.530879,-1.283055,0.027988,0.024473,-0.0418,0.838006,-0.716155,0.124191,2.87495638010856,1.38625782886722,-0.0785151757848889
-9.609172,0.530665,-1.274891,0.030186,0.024113,-0.044371,0.843186,-0.724337,0.121709,2.87560119145606,1.38621126352211,-0.0779527613617778
-9.593428,0.46998,-1.268538,0.032166,0.022208,-0.042135,0.843186,-0.724337,0.121709,2.87622011959261,1.38616770014078,-0.0774102436753333
-9.601158,0.462154,-1.222909,0.025681,0.022571,-0.044406,0.843186,-0.724337,0.121709,2.87685316743089,1.38612469526433,-0.0768368685937778
-9.608288,0.416616,-1.253723,0.023825,0.021663,-0.040883,0.843186,-0.724337,0.121709,2.87743263370639,1.38608151585511,-0.0763132877137222
-9.623204,0.363197,-1.223727,0.012763,0.024268,-0.046366,0.838049,-0.710731,0.126933,2.87805880495322,1.38603570100094,-0.0757746795615
-9.653366,0.324989,-1.231089,0.012055,0.019804,-0.049315,0.838049,-0.710731,0.126933,2.87871073723806,1.38600238269367,-0.0751474262114444
-9.630261,0.302409,-1.239573,0.00724,0.016681,-0.048724,0.838049,-0.710731,0.126933,2.879331951754,1.38597613296389,-0.0745391794808889
-9.660414,0.256547,-1.231861,0.000137,0.012613,-0.049759,0.838049,-0.710731,0.126933,2.87993452616928,1.38596032029422,-0.0739318228675
-9.660414,0.256547,-1.231861,0.000346,0.009713,-0.054941,0.846303,-0.711139,0.122165,2.88058961749739,1.385954839965,-0.073230148741
-9.637124,0.218828,-1.255741,-0.003726,0.012651,-0.049775,0.846303,-0.711139,0.122165,2.88118269732956,1.38593880040272,-0.0726226350481111
-9.667461,0.211093,-1.285447,-0.009256,0.007601,-0.052423,0.846303,-0.711139,0.122165,2.88177872676567,1.38593660128972,-0.0719980520495555
-9.652278,0.226468,-1.300797,-0.012553,0.010464,-0.055945,0.846303,-0.711139,0.122165,2.88242179278539,1.38592967233844,-0.0713171996834445
-9.637078,0.226536,-1.285997,-0.01722,0.011087,-0.063359,0.843462,-0.716386,0.121887,2.88314624343939,1.38592602460339,-0.0705296554302778
-9.637298,0.272289,-1.3309,-0.023051,0.014305,-0.064951,0.843462,-0.716386,0.121887,2.88389251069061,1.38591537810394,-0.0697171529898889
-9.629908,0.310423,-1.353328,-0.023373,0.010497,-0.064993,0.843462,-0.716386,0.121887,2.88462546109089,1.38591385966878,-0.0689173390824444
-9.622833,0.378892,-1.360147,-0.022737,0.007631,-0.065341,0.843462,-0.716386,0.121887,2.88535479866267,1.38591937490456,-0.0681228309714444
-9.638549,0.439606,-1.374091,-0.025531,0.008214,-0.075321,0.843363,-0.710839,0.127251,2.88620313268233,1.38592993413761,-0.0672593824132222
-9.623431,0.462578,-1.389334,-0.027015,0.002241,-0.069596,0.843363,-0.710839,0.127251,2.886958789797,1.38595094788406,-0.0664272275820556
-9.5702,0.485833,-1.39794,-0.031158,0.001663,-0.067687,0.843363,-0.710839,0.127251,2.88767762049556,1.38597204889689,-0.0656220031585
-9.570421,0.508598,-1.390029,-0.029793,-0.000545,-0.064164,0.843363,-0.710839,0.127251,2.88834702351144,1.38599616932678,-0.0648705348305
-9.532207,0.516644,-1.42883,-0.034679,-0.0002,-0.066754,0.84607,-0.713667,0.124728,2.88903407179117,1.38602123223367,-0.064111997925
-9.555154,0.547044,-1.480965,-0.040237,0.000139,-0.070631,0.84607,-0.713667,0.124728,2.88976379333506,1.38604755177656,-0.0632725999835556
-9.555135,0.554725,-1.503631,-0.046339,0.005918,-0.069944,0.84607,-0.713667,0.124728,2.89048878504067,1.38605933273906,-0.0624225206361111
-9.555189,0.577656,-1.541264,-0.04559,0.008805,-0.06508,0.84607,-0.713667,0.124728,2.89116228957683,1.38606099080044,-0.0616267209825556
-9.509625,0.585487,-1.504348,-0.038717,0.00529,-0.059946,0.840847,-0.710908,0.124469,2.89176964619022,1.38606816409761,-0.0609470728926111
-9.502449,0.615746,-1.450976,-0.040809,0.008429,-0.067322,0.840847,-0.710908,0.124469,2.89248297910628,1.38607193400561,-0.0601229116626667
-9.510613,0.645797,-1.374449,-0.032976,0.0049,-0.062502,0.840847,-0.710908,0.124469,2.89314180543583,1.38608118424283,-0.0593741311394444
-9.503253,0.660916,-1.336472,-0.030092,0.005504,-0.063129,0.840847,-0.710908,0.124469,2.89381803268333,1.38608924765717,-0.0586149833692222
-9.495893,0.676035,-1.298495,-0.020441,0.006045,-0.063412,0.833017,-0.710869,0.121369,2.89451867706644,1.38609638604778,-0.0578663424722222
-9.518805,0.675821,-1.290331,-0.016116,-0.002522,-0.057051,0.833017,-0.710869,0.121369,2.8951248817635,1.38612001778589,-0.0572139738554444
-9.511205,0.675855,-1.282931,-0.010498,-0.006766,-0.065128,0.833017,-0.710869,0.121369,2.89583632972556,1.38615878151583,-0.0564688410672778
-9.4882,0.668499,-1.298793,-0.007089,-0.004508,-0.056401,0.833017,-0.710869,0.121369,2.89645058038367,1.38618667185372,-0.0558312379235
-9.480315,0.63817,-1.299412,-0.000645,-0.008378,-0.056101,0.840989,-0.711031,0.121846,2.89705940307239,1.38622400441489,-0.0552161669613333
-9.518251,0.630401,-1.336518,-0.000841,-0.011192,-0.050336,0.840989,-0.711031,0.121846,2.89758926713244,1.38626432148656,-0.0546803338802778
-9.487333,0.592744,-1.360589,0.005546,-0.013493,-0.052597,0.840989,-0.711031,0.121846,2.89815728405772,1.38631151514967,-0.0541219162577778
-9.502396,0.569826,-1.360528,-0.001326,-0.011562,-0.057751,0.840989,-0.711031,0.121846,2.89878165761694,1.38635706820467,-0.0534886938867222
-9.532741,0.569745,-1.405309,0.000696,-0.013457,-0.053578,0.838338,-0.719174,0.116264,2.89934578246128,1.38640492509233,-0.0528778815243333
-9.548025,0.569594,-1.397336,-0.008667,-0.014965,-0.054913,0.838338,-0.719174,0.116264,2.89990454914933,1.38645690095356,-0.0522927429335556
-9.562865,0.546898,-1.458002,-0.009607,-0.014948,-0.053629,0.838338,-0.719174,0.116264,2.90044462337689,1.38650802160417,-0.0517242373165
-9.562773,0.539328,-1.4657,-0.004422,-0.018479,-0.052041,0.838338,-0.719174,0.116264,2.90096598769067,1.38656669952406,-0.0511879679035
-9.562625,0.531814,-1.488579,-0.003442,-0.016262,-0.05137,0.835766,-0.708273,0.121587,2.90148290141861,1.38661993202128,-0.0506795888283889
-9.61568,0.501073,-1.510443,-0.003275,-0.012829,-0.058413,0.835766,-0.708273,0.121587,2.90210889813267,1.38666855685317,-0.0500398214781667
-9.607988,0.493537,-1.510741,0.002324,-0.008392,-0.052551,0.835766,-0.708273,0.121587,2.90268682851972,1.38670288745056,-0.0494631651803889
-9.623161,0.470509,-1.480317,0.002303,-0.013797,-0.053576,0.835766,-0.708273,0.121587,2.90326118098483,1.38675086651117,-0.0488901217111111
-9.607611,0.432616,-1.473643,-0.00025,-0.011224,-0.052594,0.849244,-0.711439,0.117078,2.90381949388767,1.38679226568606,-0.0482549096663889
-9.615248,0.440208,-1.488526,-0.00256,-0.01154,-0.05518,0.849244,-0.711439,0.117078,2.904410322247,1.38683560217478,-0.0476527366765
-9.638473,0.47033,-1.464753,-0.003596,-0.012826,-0.058414,0.849244,-0.711439,0.117078,2.90503703454544,1.38688389539439,-0.0470114334378333
-9.630901,0.470336,-1.449762,-0.007122,-0.010245,-0.057754,0.849244,-0.711439,0.117078,2.90565475840583,1.3869254341955,-0.0463703221852222
-9.623586,0.500733,-1.434344,-0.009788,-0.012792,-0.061975,0.843787,-0.711208,0.119383,2.90630777279389,1.38697597888794,-0.0456795389040556
-9.608708,0.53879,-1.419009,-0.015477,-0.014603,-0.057184,0.843787,-0.711208,0.119383,2.90688411493267,1.38702764059017,-0.0450592668651111
-9.601383,0.584522,-1.441331,-0.012209,-0.0143,-0.054914,0.843787,-0.711208,0.119383,2.90744021126922,1.38707719044578,-0.0444679149074444
-9.563032,0.546732,-1.412457,-0.00379,-0.016584,-0.052661,0.843787,-0.711208,0.119383,2.90798103598772,1.38713092908806,-0.0439134940855556
-9.563281,0.56947,-1.396955,-0.002965,-0.018864,-0.059121,0.843879,-0.708558,0.119442,2.90859615930972,1.38719431939294,-0.0432795735833889
-9.578657,0.576888,-1.381284,0.003222,-0.016041,-0.055848,0.843879,-0.708558,0.119442,2.90919866391189,1.38724845946061,-0.0426802629310556
-9.563346,0.577067,-1.396848,0.008365,-0.020221,-0.0562,0.843879,-0.708558,0.119442,2.90980605543183,1.38731289696217,-0.0420890680528889
-9.578417,0.561804,-1.411861,0.011275,-0.022786,-0.055574,0.843879,-0.708558,0.119442,2.91040501701861,1.3873831638585,-0.0415138603771667
-9.563169,0.592568,-1.480132,0.006529,-0.021759,-0.051715,0.841321,-0.71405,0.113919,2.91093954110383,1.38744904998211,-0.0409359125368333
-9.532416,0.577731,-1.511473,0.011642,-0.031346,-0.053415,0.841321,-0.71405,0.113919,2.91148560180567,1.38753879473644,-0.0404154557935
-9.540026,0.58535,-1.533948,0.013896,-0.025018,-0.053338,0.841321,-0.71405,0.113919,2.91205623672261,1.38761304098011,-0.0398757480847778
-9.555548,0.623271,-1.548213,0.02167,-0.022219,-0.051025,0.841321,-0.71405,0.113919,2.91262491687244,1.3876791016365,-0.0393577871601667
-9.525303,0.661562,-1.563623,0.030864,-0.022675,-0.057438,0.859824,-0.708882,0.120397,2.91329412790228,1.38775031100983,-0.0387463988396111
-9.502751,0.684403,-1.525921,0.034763,-0.019522,-0.05578,0.859824,-0.708882,0.120397,2.9139671961065,1.38781237486561,-0.0381555879335555
-9.509927,0.654144,-1.579294,0.027883,-0.029864,-0.046582,0.859824,-0.708882,0.120397,2.91447089770317,1.38789437036461,-0.0377195352415556
-9.471832,0.669733,-1.602807,0.027792,-0.020685,-0.050668,0.859824,-0.708882,0.120397,2.91505650753244,1.38795625968761,-0.0371999511621111
-9.487181,0.677179,-1.594727,0.030529,-0.02256,-0.043274,0.840706,-0.710785,0.127092,2.91553964916789,1.388019178754,-0.0369365113873333
-9.479028,0.608806,-1.580699,0.027534,-0.018437,-0.047749,0.840706,-0.710785,0.127092,2.91609365111111,1.38807385987328,-0.0364484304742778
-9.448627,0.608942,-1.5511,0.023406,-0.02155,-0.045223,0.840706,-0.710785,0.127092,2.91659490924889,1.38813466709306,-0.0360035115171667
-9.486372,0.555393,-1.535712,0.015401,-0.022094,-0.043325,0.840706,-0.710785,0.127092,2.91704977657433,1.38819571865872,-0.035585418248
-9.501406,0.532504,-1.543242,0.006366,-0.025191,-0.044356,0.836233,-0.703218,0.11646,2.91748064564283,1.38826528742394,-0.0351354727468889
-9.493724,0.509634,-1.5058,-0.001252,-0.016822,-0.039462,0.836233,-0.703218,0.11646,2.91785927705094,1.38831127681089,-0.0347525652857222
-9.524126,0.48651,-1.482585,-0.010887,-0.02085,-0.038572,0.836233,-0.703218,0.11646,2.91819013883778,1.38836655134161,-0.0343937433478889
-9.532003,0.509185,-1.466891,-0.006731,-0.026616,-0.039907,0.836233,-0.703218,0.11646,2.91853197873633,1.38843662625189,-0.0340343279986111
-9.509055,0.501773,-1.467571,-0.006738,-0.024077,-0.040203,0.849654,-0.695414,0.120057,2.91887952585672,1.38850109866,-0.0336402155331111
-9.532337,0.508852,-1.375802,-0.004922,-0.01715,-0.045591,0.849654,-0.695414,0.120057,2.91932994259633,1.38855117211394,-0.0331749984139444
-9.54764,0.50102,-1.345164,-0.003256,-0.020956,-0.043051,0.849654,-0.695414,0.120057,2.91973978046511,1.38860908208961,-0.0327552819899444
-9.539856,0.462927,-1.300345,-0.002835,-0.023464,-0.038572,0.849654,-0.695414,0.120057,2.92008415108894,1.38867060489378,-0.0324032144706111
-9.61561,0.41686,-1.337031,0.000404,-0.023493,-0.037594,0.843745,-0.716632,0.116642,2.92041752614778,1.38873221496433,-0.0320827373840555
-9.600382,0.416956,-1.329822,0.000083,-0.021901,-0.037578,0.843745,-0.716632,0.116642,2.92076114628067,1.38878935699578,-0.0317388729052778
-9.615492,0.38633,-1.299505,0.005443,-0.026438,-0.042761,0.843745,-0.716632,0.116642,2.92117360214111,1.38886037438306,-0.031338616886
-9.638496,0.393686,-1.283644,0.012476,-0.030018,-0.045028,0.843745,-0.716632,0.116642,2.92162344292256,1.38894132268539,-0.0309182546907222
-9.630729,0.393887,-1.321789,0.029073,-0.038052,-0.036691,0.843879,-0.708558,0.119442,2.92197425380589,1.38903792657789,-0.0306734899231667
-9.607219,0.310415,-1.300766,0.027723,-0.03552,-0.03957,0.843879,-0.708558,0.119442,2.92237419566617,1.38912927703378,-0.0303426281363333
-9.630352,0.332966,-1.28469,0.026947,-0.034608,-0.045677,0.843879,-0.708558,0.119442,2.92285642973117,1.38922169213961,-0.0299261405687222
-9.614755,0.302783,-1.308272,0.022432,-0.03933,-0.046068,0.843879,-0.708558,0.119442,2.92331909867178,1.38932581839483,-0.0295180480277222
-9.629761,0.302909,-1.376208,0.01348,-0.039859,-0.043207,0.838791,-0.697725,0.121983,2.92371376964217,1.38943031116889,-0.0292084094266667
-9.622279,0.333472,-1.406334,0.009707,-0.041695,-0.039054,0.838791,-0.697725,0.121983,2.92404517248061,1.38953635728467,-0.0289014586303889
-9.606727,0.318567,-1.452475,0.008412,-0.039463,-0.039357,0.838791,-0.697725,0.121983,2.92438434202767,1.389637097604,-0.0285833377363333
-9.576066,0.334288,-1.528933,0.013581,-0.035378,-0.038331,0.838791,-0.697725,0.121983,2.92473510055117,1.38972729614356,-0.0282665607446667
-9.614501,0.371995,-1.535034,0.014847,-0.041751,-0.039358,0.835717,-0.705499,0.124269,2.92507767348739,1.38983435454944,-0.0280768261619444
-9.56818,0.303959,-1.529551,0.020963,-0.042125,-0.039348,0.835717,-0.705499,0.124269,2.925441382343,1.389941517675,-0.0277656691257222
-9.568117,0.273374,-1.476844,0.0189,-0.036118,-0.045407,0.835717,-0.705499,0.124269,2.92589888511339,1.39003724890361,-0.0273539288496667
-9.568126,0.281027,-1.491918,0.012868,-0.03603,-0.041562,0.835717,-0.705499,0.124269,2.92629062393311,1.39013067629956,-0.0269937106496111
-9.55277,0.24294,-1.432109,0.004837,-0.033087,-0.040916,0.843922,-0.703134,0.122183,2.92665618283617,1.39021726201061,-0.026686550414
-9.529729,0.227958,-1.440486,-0.005913,-0.03525,-0.046773,0.843922,-0.703134,0.122183,2.92707373505372,1.39031150971061,-0.0262524001292778
-9.491921,0.27391,-1.455981,-0.016879,-0.036738,-0.047792,0.843922,-0.703134,0.122183,2.92747362455417,1.39040989383744,-0.0258083189295
-9.51474,0.266126,-1.455515,-0.023541,-0.037909,-0.043319,0.843922,-0.703134,0.122183,2.92779394456122,1.39050874920278,-0.0254282039927778
-9.515367,0.326797,-1.424296,-0.033071,-0.035029,-0.052331,0.847046,-0.698133,0.117215,2.9282139925975,1.39060594650672,-0.0248793856730556
-9.545418,0.2887,-1.462021,-0.032924,-0.031805,-0.045535,0.847046,-0.698133,0.117215,2.92855911371228,1.39069099632933,-0.0244502270257778
-9.553046,0.288638,-1.46183,-0.042574,-0.030121,-0.045227,0.847046,-0.698133,0.117215,2.92888123140694,1.39077175264561,-0.0240199339154444
-9.614439,0.318422,-1.429511,-0.050949,-0.026552,-0.045533,0.847046,-0.698133,0.117215,2.92919718809456,1.39084392194922,-0.0235746484395
-9.530219,0.265781,-1.394406,-0.05808,-0.032211,-0.047879,0.854742,-0.706246,0.117515,2.92950462758261,1.39093181665611,-0.0231053298000556
-9.568515,0.280639,-1.385647,-0.063551,-0.028667,-0.047856,0.854742,-0.706246,0.117515,2.92981484214183,1.39101033895283,-0.0226338469541667
-9.560777,0.257824,-1.363386,-0.067994,-0.033999,-0.045033,0.854742,-0.706246,0.117515,2.93006091590522,1.39110036295961,-0.0222162947366111
-9.575978,0.257756,-1.378186,-0.077344,-0.03328,-0.0457,0.854742,-0.706246,0.117515,2.9302949818135,1.39118897325089,-0.0217871709958889
-9.614321,0.264905,-1.339171,-0.075334,-0.030732,-0.042121,0.839025,-0.695198,0.11942,2.9304872471215,1.3912702531655,-0.0214437079425
-9.591408,0.288106,-1.400149,-0.079319,-0.039628,-0.047706,0.839025,-0.695198,0.11942,2.93072572870906,1.39137539171083,-0.0210050896186667
-9.591372,0.280481,-1.392665,-0.074776,-0.034896,-0.046029,0.839025,-0.695198,0.11942,2.93096700282106,1.39146808606911,-0.020575215387
-9.599073,0.29567,-1.407442,-0.07188,-0.0381,-0.046054,0.839025,-0.695198,0.11942,2.93120695048394,1.39156858204256,-0.0201540328876667
-9.59149,0.31101,-1.430191,-0.066409,-0.041646,-0.046074,0.849611,-0.700837,0.117315,2.9314448037535,1.39167853769256,-0.0197571104444444
-9.606625,0.326331,-1.497913,-0.062541,-0.041684,-0.045738,0.849611,-0.700837,0.117315,2.93169429835933,1.39178760322539,-0.0193499603804444
-9.621568,0.295872,-1.51314,-0.062849,-0.044217,-0.045124,0.849611,-0.700837,0.117315,2.93192784066928,1.39190253305956,-0.0189582739205556
-9.613883,0.318977,-1.581327,-0.063187,-0.042951,-0.045755,0.849611,-0.700837,0.117315,2.93217309412861,1.39201468782256,-0.0185538116613333
-9.636278,0.280969,-1.626834,-0.057933,-0.043601,-0.040916,0.849378,-0.703365,0.119879,2.93235811632633,1.39212673786589,-0.0182924837331667
-9.643749,0.265739,-1.634448,-0.054819,-0.038589,-0.04568,0.849378,-0.703365,0.119879,2.93263661827983,1.39222815886306,-0.0178755423803333
-9.636001,0.258259,-1.649928,-0.049662,-0.039589,-0.045352,0.849378,-0.703365,0.119879,2.93292108925433,1.39233181387978,-0.0174656172451667
-9.658765,0.250531,-1.664643,-0.046507,-0.041866,-0.048263,0.849378,-0.703365,0.119879,2.93324680232422,1.392442537474,-0.0170218152978333
-9.651358,0.273358,-1.656923,-0.047101,-0.038667,-0.045976,0.844162,-0.708803,0.114196,2.93354343823333,1.39254502312111,-0.0166282613372222
-9.67427,0.273145,-1.648759,-0.041943,-0.040621,-0.045657,0.844162,-0.708803,0.114196,2.93384965599194,1.3926512961295,-0.0162158927431667
-9.674777,0.326273,-1.632829,-0.04172,-0.043198,-0.050189,0.844162,-0.708803,0.114196,2.93421109592144,1.39276619105711,-0.0157479703659444
-9.636757,0.334125,-1.618495,-0.041425,-0.037493,-0.051415,0.844162,-0.708803,0.114196,2.93460677918194,1.39286771677394,-0.0152460140970556
-9.621906,0.372155,-1.595569,-0.040102,-0.037491,-0.049799,0.846629,-0.705961,0.11966,2.93497787077406,1.39296929485061,-0.0148688836708333
-9.61473,0.425401,-1.595011,-0.041453,-0.044487,-0.052776,0.846629,-0.705961,0.11966,2.93537311770261,1.39308857055094,-0.0143673113740556
-9.599925,0.478709,-1.594644,-0.0392,-0.040697,-0.052725,0.846629,-0.705961,0.11966,2.93578468344589,1.39319850874767,-0.0138549005917778
-9.554257,0.517291,-1.655982,-0.036822,-0.040674,-0.046923,0.846629,-0.705961,0.11966,2.93612367846017,1.39330539262078,-0.0134222861955
-9.562318,0.555107,-1.624893,-0.02687,-0.038557,-0.048152,0.852177,-0.703542,0.117415,2.936504491528,1.39340854149244,-0.0130131988176667
-9.539507,0.570543,-1.640433,-0.025877,-0.045224,-0.046934,0.852177,-0.703542,0.117415,2.93685903741278,1.39352652565022,-0.0125925748232222
-9.524528,0.593377,-1.617722,-0.02969,-0.04104,-0.044647,0.852177,-0.703542,0.117415,2.93718516936133,1.39363306045778,-0.0121911668876111
-9.486046,0.586367,-1.694691,-0.036767,-0.039382,-0.044334,0.852177,-0.703542,0.117415,2.93749444144356,1.39373537157211,-0.0117889211946667
-9.508754,0.578694,-1.724589,-0.048936,-0.036703,-0.041448,0.849286,-0.706015,0.11982,2.93773513959739,1.39383054429583,-0.0115251323543333
-9.516713,0.624274,-1.738938,-0.055969,-0.041699,-0.03927,0.849286,-0.706015,0.11982,2.93792122644506,1.39393592718706,-0.0111992622049444
-9.485832,0.594242,-1.770492,-0.060239,-0.036607,-0.043096,0.849286,-0.706015,0.11982,2.93816377464633,1.3940307682985,-0.0108052020992778
-9.478314,0.61718,-1.793135,-0.063597,-0.030158,-0.034665,0.849286,-0.706015,0.11982,2.93830087014328,1.3941055381405,-0.0105097355597778
-9.485841,0.601895,-1.785567,-0.06562,-0.035887,-0.03892,0.851802,-0.705947,0.122602,2.93846843906322,1.39419741219472,-0.0103137876101667
-9.501346,0.624509,-1.769683,-0.067515,-0.028236,-0.037231,0.851802,-0.705947,0.122602,2.93863679338067,1.39426876119428,-0.00997662519005555
-9.493524,0.601778,-1.770194,-0.064331,-0.020975,-0.038752,0.851802,-0.705947,0.122602,2.93885469755372,1.394323093248,-0.00959722583772222
-9.524332,0.616559,-1.723672,-0.051405,-0.028386,-0.036533,0.851802,-0.705947,0.122602,2.9390537347335,1.39439442479428,-0.00926983725316667
-9.517018,0.646956,-1.708253,-0.055645,-0.025507,-0.039091,0.836233,-0.703218,0.11646,2.93927886456355,1.39446083451622,-0.00897798354216667
-9.509612,0.646796,-1.647718,-0.055391,-0.023309,-0.042285,0.836233,-0.703218,0.11646,2.9395617298365,1.39452260166628,-0.00855530006094444
-9.502316,0.669512,-1.609634,-0.051822,-0.027778,-0.041033,0.836233,-0.703218,0.11646,2.93982398278839,1.39459466625022,-0.00816265367077778
-9.510211,0.707495,-1.62409,-0.050072,-0.023935,-0.034544,0.836233,-0.703218,0.11646,2.94001237346872,1.3946540597545,-0.00784945460105555
-9.548647,0.722214,-1.577376,-0.051722,-0.025522,-0.036496,0.847095,-0.700906,0.114533,2.94021249275172,1.39471907321422,-0.00752932658005555
-9.610132,0.759568,-1.53736,-0.04725,-0.031931,-0.038155,0.847095,-0.700906,0.114533,2.94043558054828,1.3947998295305,-0.00718808009294444
-9.610197,0.767166,-1.537253,-0.049174,-0.029052,-0.037808,0.847095,-0.700906,0.114533,2.94065739425555,1.3948733427365,-0.00684322077733333
-9.603067,0.812703,-1.506439,-0.045577,-0.032876,-0.03526,0.847095,-0.700906,0.114533,2.94084260843933,1.39495493681011,-0.0065447173675
-9.58081,0.87356,-1.475793,-0.042266,-0.036684,-0.031103,0.852318,-0.703665,0.114793,2.94096129072822,1.39504459429806,-0.00634409193944444
-9.566308,0.972538,-1.497556,-0.039755,-0.034825,-0.033968,0.852318,-0.703665,0.114793,2.9411381796985,1.39513030734522,-0.00606880138905556
-9.582347,1.07124,-1.510965,-0.033596,-0.031061,-0.031969,0.852318,-0.703665,0.114793,2.94131365495328,1.39520579277161,-0.00581059759761111
-9.575309,1.124347,-1.472453,-0.027039,-0.039654,-0.026566,0.852318,-0.703665,0.114793,2.94140696017628,1.3952996564995,-0.00565248835422222
-9.568179,1.169884,-1.441639,-0.01948,-0.040623,-0.019466,0.841363,-0.708626,0.11666,2.94141074753756,1.39539325842822,-0.005717379641
-9.56045,1.154723,-1.434453,-0.007612,-0.04234,-0.021378,0.841363,-0.708626,0.11666,2.94147356188428,1.39549110150344,-0.00563957292866667
-9.590251,1.093888,-1.487681,0.001744,-0.044533,-0.005597,0.841363,-0.708626,0.11666,2.94133527956444,1.3955864836665,-0.00578975838394444
-9.604677,1.025634,-1.556579,0.006641,-0.048368,-0.002406,0.841363,-0.708626,0.11666,2.94115409708783,1.39568966744472,-0.00599591650105555
-9.634754,1.010496,-1.639528,0.00477,-0.053412,0.000431,0.849569,-0.706261,0.114574,2.9409066445155,1.39580461473217,-0.00630777166838889
-9.626416,0.94997,-1.693711,0.010541,-0.052207,-0.000506,0.849569,-0.706261,0.114574,2.94069753679444,1.39591624589683,-0.00655218737038889
-9.587677,0.889581,-1.718293,0.017056,-0.048748,0.00309,0.849569,-0.706261,0.114574,2.94046434355005,1.39601759708089,-0.00683761827516667
-9.564147,0.836777,-1.772751,0.012912,-0.044882,0.005046,0.849569,-0.706261,0.114574,2.94020428971117,1.39610847629828,-0.00713978687333333
-9.570852,0.761016,-1.849538,0.014303,-0.042955,0.009897,0.849562,-0.698064,0.119997,2.93987719783233,1.39619308978894,-0.00761956002616667
-9.578195,0.730591,-1.857365,0.020476,-0.042043,0.012502,0.849562,-0.698064,0.119997,2.93953994814583,1.39627325269378,-0.00801930990038889
-9.562367,0.669988,-1.873785,0.018838,-0.03378,0.011296,0.849562,-0.698064,0.119997,2.93923859985172,1.39633376320783,-0.00837844599722222
-9.569885,0.64705,-1.851142,0.02995,-0.037754,0.004206,0.849562,-0.698064,0.119997,2.93905198940572,1.39640755566628,-0.00864928596177778
-9.577743,0.677406,-1.858114,0.038298,-0.044193,0.0032,0.854792,-0.70902,0.114833,2.93887337256094,1.39649838252383,-0.00897266029244444
-9.570051,0.669871,-1.858412,0.053441,-0.040206,0.003938,0.854792,-0.70902,0.114833,2.93874180975306,1.39657830108278,-0.00924723525844444
-9.516517,0.647456,-1.844888,0.067969,-0.042869,0.005886,0.854792,-0.70902,0.114833,2.93861162575411,1.39666375233078,-0.00955724037833333
-9.493734,0.662865,-1.852838,0.080481,-0.043004,0.003994,0.854792,-0.70902,0.114833,2.93853849652022,1.39675047766806,-0.00984111794138889
-9.486235,0.678122,-1.852814,0.079656,-0.041358,0.010448,0.843929,-0.711331,0.11676,2.93836923463233,1.39683074529256,-0.0103350457025
-9.485967,0.663065,-1.890982,0.083811,-0.042997,0.009156,0.843929,-0.711331,0.11676,2.93823210422883,1.39691483518489,-0.0106923492051667
-9.455058,0.633061,-1.930128,0.081542,-0.044249,0.008487,0.843929,-0.711331,0.11676,2.938094764386,1.39700232846639,-0.0110440676589444
-9.447725,0.671139,-1.937375,0.071963,-0.038731,0.012058,0.843929,-0.711331,0.11676,2.93789932258144,1.39707449777,-0.0114304832289444
-9.416908,0.648705,-1.968823,0.07187,-0.041937,0.007834,0.852417,-0.709211,0.109428,2.93774491343294,1.39715722630667,-0.0117097880332222
-9.42473,0.671436,-1.968311,0.068715,-0.034263,0.010807,0.852417,-0.709211,0.109428,2.93757123586578,1.39721904581656,-0.0120658348998889
-9.409465,0.663907,-1.953618,0.063244,-0.029764,0.010836,0.852417,-0.709211,0.109428,2.93739630166261,1.39726985230817,-0.0124092805
-9.394301,0.6716,-1.946302,0.052222,-0.031271,0.007241,0.852417,-0.709211,0.109428,2.93723951886833,1.397326139129,-0.0127063178345
-9.425126,0.701688,-1.929929,0.05456,-0.030947,0.011119,0.846869,-0.711631,0.111674,2.93702658887944,1.39738031410322,-0.0130792594740556
-9.402869,0.762545,-1.899283,0.052406,-0.030572,0.015625,0.846869,-0.711631,0.111674,2.93675480643789,1.39743061444978,-0.0134935130221111
-9.349668,0.762784,-1.847484,0.051456,-0.030553,0.016263,0.846869,-0.711631,0.111674,2.93647157464611,1.39748053082422,-0.0139169644475556
-9.350074,0.80069,-1.824177,0.040302,-0.032945,0.021352,0.846869,-0.711631,0.111674,2.93608212220578,1.39753367605506,-0.0144199504598333
-9.334771,0.808522,-1.854815,0.043871,-0.026936,0.022717,0.851894,-0.703296,0.122661,2.93569045319917,1.39757217798583,-0.0151012042513333
-9.312017,0.800916,-1.802359,0.049058,-0.030147,0.024308,0.851894,-0.703296,0.122661,2.93528923724961,1.39761691073678,-0.0156383463282222
-9.304187,0.770532,-1.787796,0.043901,-0.029146,0.023978,0.851894,-0.703296,0.122661,2.93488243625117,1.3976593047485,-0.0161680707620556
-9.326877,0.747553,-1.787544,0.045693,-0.031639,0.032327,0.851894,-0.703296,0.122661,2.93435571378111,1.39770347899456,-0.0168240522073333
-9.326352,0.702105,-1.82614,0.046328,-0.030379,0.032019,0.849385,-0.711562,0.114456,2.93382923565694,1.39774527959483,-0.0175201238316667
-9.325955,0.671853,-1.864522,0.040855,-0.03382,0.031961,0.849385,-0.711562,0.114456,2.93328849820483,1.39779484690372,-0.0181780600440556
-9.325899,0.671908,-1.879704,0.040848,-0.03033,0.031677,0.849385,-0.711562,0.114456,2.93276174082822,1.39783598427944,-0.0188217892883333
-9.371741,0.686788,-1.893526,0.041799,-0.025901,0.031088,0.849385,-0.711562,0.114456,2.93225849301678,1.39786652751556,-0.0194440510009444
-9.364085,0.686877,-1.901307,0.044423,-0.028449,0.033322,0.854841,-0.711793,0.112151,2.9317137238575,1.39790258598744,-0.0200893335869444
-9.394255,0.656322,-1.923744,0.049349,-0.030052,0.037828,0.854841,-0.711793,0.112151,2.93112214500722,1.39793963929617,-0.0208204339397778
-9.416789,0.618175,-1.931297,0.056626,-0.030804,0.032049,0.854841,-0.711793,0.112151,2.93062715259617,1.39798149225628,-0.0214719473459444
-9.470149,0.610116,-1.922476,0.069651,-0.0204,0.03897,0.854841,-0.711793,0.112151,2.93009880697128,1.39799423314906,-0.0221903591658333
-9.447367,0.602538,-1.877611,0.084452,-0.024989,0.038647,0.84971,-0.706384,0.111951,2.92958894436756,1.39801873755106,-0.0228936040873333
-9.424807,0.617725,-1.824835,0.093404,-0.022555,0.035806,0.84971,-0.706384,0.111951,2.92915755170072,1.39803828522217,-0.0235738804952778
-9.394388,0.602555,-1.765086,0.094798,-0.024115,0.040621,0.84971,-0.706384,0.111951,2.92865735821289,1.39805905462272,-0.024327530483
-9.4249,0.602307,-1.764322,0.100228,-0.02736,0.038674,0.84971,-0.706384,0.111951,2.92818800466689,1.39808870774167,-0.0250636573798333
-9.448144,0.624748,-1.717884,0.091769,-0.02477,0.034491,0.860156,-0.711901,0.11247,2.92775456996655,1.39811462585917,-0.0257038261554444
-9.463667,0.662668,-1.732148,0.083589,-0.02399,0.043167,0.860156,-0.711901,0.11247,2.92719056729517,1.39813354521228,-0.0264937789609444
-9.463556,0.662779,-1.762512,0.080992,-0.028101,0.042147,0.860156,-0.711901,0.11247,2.92662162534617,1.39816297143861,-0.0272821435181667
-9.440412,0.678549,-1.869142,0.090582,-0.02663,0.039297,0.860156,-0.711901,0.11247,2.92612089080672,1.39819025091178,-0.0280256356982222
-9.470711,0.663189,-1.891364,0.094635,-0.024064,0.048032,0.849244,-0.711439,0.117078,2.92550581984456,1.39820707587156,-0.0289910463052222
-9.508529,0.624891,-1.890945,0.102011,-0.019384,0.046821,0.849244,-0.711439,0.117078,2.92495024710633,1.39821248638767,-0.0298192043357778
-9.516157,0.624829,-1.890754,0.10565,-0.021289,0.05132,0.849244,-0.711439,0.117078,2.92433482707861,1.39822004365694,-0.0307173325569444
-9.508069,0.564053,-1.876619,0.102424,-0.021577,0.05098,0.849244,-0.711439,0.117078,2.92371513099783,1.39822838632372,-0.0316116036037222
-9.531028,0.556131,-1.838199,0.094322,-0.020567,0.04839,0.846586,-0.711385,0.116919,2.92310468515428,1.39823608321922,-0.0325591420542778
-9.485139,0.548961,-1.854633,0.08985,-0.020509,0.049982,0.846586,-0.711385,0.116919,2.92247072974556,1.39824217441317,-0.0334359947298333
-9.485388,0.571698,-1.839131,0.079914,-0.019762,0.051889,0.846586,-0.711385,0.116919,2.92178750373367,1.39824529854989,-0.0343376310598333
-9.493016,0.571636,-1.83894,0.07477,-0.018758,0.052205,0.846586,-0.711385,0.116919,2.92109014056678,1.39824569997528,-0.0352405938389444
-9.523649,0.578931,-1.822887,0.07927,-0.024521,0.051838,0.852368,-0.706438,0.112111,2.92038165966194,1.39826053526139,-0.0360864145866111
-9.561447,0.548313,-1.845133,0.08321,-0.021993,0.055421,0.852368,-0.706438,0.112111,2.91965008807061,1.39826683589467,-0.0370454896537778
-9.561005,0.502783,-1.860956,0.086891,-0.018804,0.061905,0.852368,-0.706438,0.112111,2.91884704530678,1.39826166972444,-0.0380864555002778
-9.590927,0.449489,-1.898895,0.094538,-0.01859,0.05839,0.852368,-0.706438,0.112111,2.91811301280328,1.3982577776435,-0.0390767719346667
-9.6288,0.411136,-1.883294,0.100284,-0.018665,0.056156,0.843554,-0.713736,0.121946,2.91741404393483,1.39825578796983,-0.0402499289070556
-9.643586,0.365509,-1.906326,0.110619,-0.016848,0.057819,0.843554,-0.713736,0.121946,2.91673383734,1.3982477245555,-0.0412264048921667
-9.635995,0.373196,-1.914001,0.116434,-0.023565,0.05873,0.843554,-0.713736,0.121946,2.91603394344783,1.398255421451,-0.0422376478066111
-9.59803,0.380992,-1.884486,0.124986,-0.018615,0.052373,0.843554,-0.713736,0.121946,2.91546018439417,1.39825449642728,-0.0431425653528333
-9.59054,0.403903,-1.899537,0.135035,-0.015829,0.055658,0.840989,-0.711031,0.121846,2.9148644342105,1.39824535090972,-0.0442568000594444
-9.613387,0.396092,-1.891481,0.14344,-0.012088,0.057338,0.840989,-0.711031,0.121846,2.91428859821678,1.39822555889272,-0.0452106565965556
-9.636594,0.433895,-1.890373,0.152991,-0.016982,0.05249,0.840989,-0.711031,0.121846,2.91378864907483,1.39822032290939,-0.0461116995151111
-9.613783,0.449331,-1.905913,0.156188,-0.018608,0.051517,0.840989,-0.711031,0.121846,2.91330507110744,1.39821953751189,-0.0470042601406667
-9.644414,0.479613,-1.942676,0.155179,-0.017663,0.049595,0.844021,-0.708681,0.116819,2.91283931293667,1.398217722371,-0.0478663822497778
-9.591082,0.487645,-1.943905,0.155501,-0.019251,0.049576,0.844021,-0.708681,0.116819,2.91237905254839,1.3982194502455,-0.0487335309028889
-9.584033,0.579073,-1.995948,0.15326,-0.019861,0.050209,0.844021,-0.708681,0.116819,2.91190231626589,1.39822222531667,-0.0496116925742778
-9.584521,0.639883,-2.002683,0.161279,-0.017408,0.048978,0.844021,-0.708681,0.116819,2.91147085378594,1.39821967713811,-0.0504642851937222
-9.569716,0.693191,-2.002316,0.159986,-0.008506,0.048751,0.838289,-0.716401,0.118946,2.91105858991156,1.39819585341394,-0.0513738278585556
-9.547606,0.78455,-2.001605,0.166228,-0.006932,0.054587,0.838289,-0.716401,0.118946,2.91059574643817,1.3981644724205,-0.0522708041633889
-9.532856,0.837802,-1.986057,0.160385,-0.005305,0.052334,0.838289,-0.716401,0.118946,2.91015536533328,1.39813035126244,-0.0531301861078889
-9.495296,0.906491,-1.986049,0.16212,-0.01353,0.058045,0.838289,-0.716401,0.118946,2.90961277783372,1.39811288053139,-0.0540977085615
-9.503497,0.944168,-1.917006,0.15831,-0.002043,0.060415,0.843413,-0.713613,0.124569,2.90905542486117,1.39806638499939,-0.0552097790616667
-9.434697,0.937211,-1.941604,0.15332,-0.003204,0.067785,0.843413,-0.713613,0.124569,2.90838975684672,1.39801798706011,-0.0562799267886111
-9.41958,0.937196,-1.904031,0.145904,-0.003771,0.06711,0.843413,-0.713613,0.124569,2.90771358195905,1.39797124718222,-0.0573419238348333
-9.419663,0.937113,-1.881259,0.133505,-0.0055,0.074132,0.843413,-0.713613,0.124569,2.9069033309915,1.39792448985106,-0.0585085707346111
-9.411851,0.922035,-1.896845,0.120734,-0.000893,0.078967,0.838006,-0.716155,0.124191,2.90599930356244,1.39786383971078,-0.0598654583621667
-9.3963,0.884143,-1.890171,0.113645,-0.003367,0.078591,0.838006,-0.716155,0.124191,2.90508572919044,1.39780894915217,-0.0610866293017222
-9.39571,0.831097,-1.928874,0.109342,0.000875,0.087957,0.838006,-0.716155,0.124191,2.90404617705944,1.39773803648456,-0.0624247721089444
-9.379837,0.755216,-1.922735,0.112252,-0.004863,0.088543,0.838006,-0.716155,0.124191,2.90298732160322,1.39768047557444,-0.0637898976836111
-9.341199,0.71005,-1.954695,0.114848,-0.000434,0.089562,0.845745,-0.718845,0.127233,2.90192593542172,1.39761158748706,-0.0653087691822222
-9.348192,0.641664,-1.970648,0.109404,0.006296,0.090902,0.845745,-0.718845,0.127233,2.90086697524583,1.39752503668256,-0.0666668261793889
-9.324553,0.542997,-1.949839,0.112959,0.001188,0.091496,0.845745,-0.718845,0.127233,2.89979239438633,1.39745026684056,-0.0680497715506667
-9.339266,0.482119,-1.957904,0.109075,-0.001006,0.090491,0.845745,-0.718845,0.127233,2.898715562054,1.39738116931383,-0.0694251771059444
-9.331296,0.451873,-1.981295,0.112517,-0.002027,0.085982,0.845837,-0.716194,0.127292,2.89769663969733,1.39731722050406,-0.0708474098055
-9.35406,0.444145,-1.996011,0.120578,0.001392,0.086692,0.845837,-0.716194,0.127292,2.89671129744711,1.39724412617672,-0.0721591458034444
-9.392099,0.428612,-1.98768,0.124504,0.000422,0.089593,0.845837,-0.716194,0.127292,2.89569326520761,1.39717138091494,-0.0735140786638889
-9.399376,0.413577,-2.048429,0.139862,-0.00389,0.085412,0.845837,-0.716194,0.127292,2.89475735064005,1.39711142890578,-0.0748246103856667
-9.383807,0.383365,-2.06442,0.144733,0.001477,0.087417,0.843179,-0.71614,0.127133,2.89381508307939,1.39703713030228,-0.0762252882871667
-9.414144,0.352643,-2.041312,0.161969,0.004432,0.080747,0.843179,-0.71614,0.127133,2.89302963321956,1.39695946321617,-0.0774391986631667
-9.353019,0.337915,-2.035463,0.172521,0.003673,0.077551,0.843179,-0.71614,0.127133,2.89231286200778,1.39688544386511,-0.0786101914291111
-9.353185,0.360736,-2.042733,0.182254,-0.002427,0.081059,0.843179,-0.71614,0.127133,2.89155139295161,1.39682388615439,-0.0798512940118889
-9.361328,0.421456,-2.041686,0.183408,-0.003121,0.074942,0.840381,-0.715963,0.129596,2.89086490317678,1.39676773895978,-0.0811213690357778
-9.354069,0.451798,-2.011086,0.191416,0.007267,0.073152,0.840381,-0.715963,0.129596,2.89027084596106,1.39668733170906,-0.0822157593655555
-9.316546,0.528113,-2.018561,0.194053,0.001867,0.076001,0.840381,-0.715963,0.129596,2.88962580772094,1.39661809455611,-0.0833686181758889
-9.340369,0.641921,-2.023975,0.202185,0.004358,0.079925,0.840381,-0.715963,0.129596,2.88895671886406,1.39654025293722,-0.084566576256
-9.317769,0.695457,-2.069344,0.207285,0.004926,0.077696,0.845038,-0.71823,0.140347,2.88832274600206,1.39646256839783,-0.0860366309366667
-9.295033,0.703157,-2.047037,0.215446,0.007112,0.082898,0.845038,-0.71823,0.140347,2.88765744450644,1.39637593032694,-0.0872644341217778
-9.317797,0.695429,-2.061753,0.220043,0.007416,0.087103,0.845038,-0.71823,0.140347,2.88694796876478,1.39628576669394,-0.0885487859268889
-9.309866,0.649822,-2.039813,0.222983,0.009309,0.089063,0.845038,-0.71823,0.140347,2.88622678187372,1.39618961658667,-0.0898525108703333
-9.348053,0.641803,-2.008602,0.232817,0.009276,0.097146,0.845702,-0.724268,0.124492,2.8854107713245,1.39608802105672,-0.0911617510495556
-9.32481,0.596375,-2.002226,0.230367,0.010183,0.08813,0.845702,-0.724268,0.124492,2.88472627122333,1.39599000344872,-0.0924470104251111
-9.363199,0.618803,-1.985769,0.232979,0.017472,0.089832,0.845702,-0.724268,0.124492,2.88405241762161,1.39587313630072,-0.0937281159205556
-9.386563,0.648786,-1.924042,0.228894,0.013737,0.094287,0.845702,-0.724268,0.124492,2.88329527697833,1.39576230798683,-0.0950834502063889
-9.402153,0.648329,-1.83257,0.230548,0.018501,0.096278,0.837165,-0.723615,0.134505,2.88252314396944,1.395638476981,-0.0965834896182778
-9.386815,0.625549,-1.80291,0.235979,0.015577,0.094331,0.837165,-0.723615,0.134505,2.88179256721494,1.39552281410917,-0.0979299052791667
-9.448522,0.662681,-1.702167,0.2434,0.016781,0.09502,0.837165,-0.723615,0.134505,2.88107691301294,1.39540362567522,-0.0992800210349444
-9.433323,0.639762,-1.634553,0.255656,0.023976,0.096104,0.837165,-0.723615,0.134505,2.88040473492589,1.39526618111272,-0.100617134098778
-9.463652,0.601387,-1.59637,0.2605,0.024886,0.096775,0.845653,-0.721495,0.127174,2.87973091623072,1.3951256124135,-0.101814236968278
-9.463571,0.555496,-1.513513,0.264742,0.015659,0.099262,0.845653,-0.721495,0.127174,2.87901128268139,1.39500590038122,-0.103222681578389
-9.53987,0.547195,-1.488938,0.273147,0.009554,0.100837,0.845653,-0.721495,0.127174,2.87827033867989,1.39489971463922,-0.104674131064944
-9.562552,0.516563,-1.473611,0.280222,0.01488,0.100597,0.845653,-0.721495,0.127174,2.87757121273194,1.39478064837822,-0.106101111056056
-9.631066,0.493157,-1.457032,0.285653,0.011952,0.098655,0.845328,-0.726673,0.129678,2.87689290854439,1.39466947099878,-0.107424017151778
-9.669281,0.485111,-1.418231,0.293512,0.004301,0.104717,0.845328,-0.726673,0.129678,2.87613498250361,1.39457288455956,-0.108944511805222
-9.700033,0.499947,-1.38689,0.292393,0.008067,0.097674,0.845328,-0.726673,0.129678,2.87548476064,1.39447163809517,-0.110352799335833
-9.760752,0.47677,-1.416046,0.289467,-0.000175,0.096288,0.845328,-0.726673,0.129678,2.87481664916667,1.39439103885839,-0.111771855538833
-9.814526,0.514269,-1.398993,0.289818,0.002687,0.097613,0.839872,-0.726442,0.131982,2.87413314390233,1.39430225403433,-0.113152915956111
-9.82981,0.514118,-1.391021,0.287837,0.002688,0.095354,0.839872,-0.726442,0.131982,2.87348620325494,1.394215022552,-0.114546385653889
-9.860442,0.521412,-1.374968,0.286186,0.000783,0.093398,0.839872,-0.726442,0.131982,2.87285544179606,1.39413353319806,-0.115919225577333
-9.845768,0.566928,-1.321573,0.289686,0.003277,0.091507,0.839872,-0.726442,0.131982,2.87226916874222,1.39404713947306,-0.117255780136278
-9.876677,0.596933,-1.282427,0.288365,0.002006,0.089883,0.834083,-0.723192,0.142214,2.87168690994228,1.39396477745522,-0.118747756133833
-9.876879,0.627379,-1.297181,0.271703,0.00664,0.09342,0.834083,-0.723192,0.142214,2.87104435006761,1.39386873206761,-0.120095864762667
-9.861834,0.665602,-1.327391,0.26208,0.000077,0.094926,0.834083,-0.723192,0.142214,2.87033394930222,1.39378731252678,-0.121488479249833
-9.869876,0.711099,-1.318967,0.254461,0.005587,0.099792,0.834083,-0.723192,0.142214,2.86956069928356,1.39368919019911,-0.122925617048611
-9.839225,0.711486,-1.357685,0.250673,-0.005145,0.103201,0.834409,-0.718014,0.13971,2.86868264233183,1.39361428073089,-0.124472832670333
-9.861962,0.703785,-1.379992,0.253198,-0.006459,0.100942,0.834409,-0.718014,0.13971,2.86784760770983,1.39354394402144,-0.125969573412722
-9.815133,0.605608,-1.443255,0.260026,-0.005865,0.104184,0.834409,-0.718014,0.13971,2.86698930786856,1.39346975013761,-0.127507311904611
-9.776754,0.567846,-1.421972,0.253926,-0.000717,0.10486,0.834409,-0.718014,0.13971,2.866127220666,1.393382501202,-0.129033409060222
-9.75316,0.507445,-1.476536,0.247136,-0.004155,0.103507,0.828493,-0.731035,0.141718,2.86524371829161,1.39330417089133,-0.130660927213
-9.698916,0.424442,-1.517003,0.255294,-0.00705,0.108646,0.828493,-0.731035,0.141718,2.86431242884267,1.39322908689033,-0.132260851733611
-9.683263,0.394314,-1.555767,0.254515,-0.007408,0.10252,0.828493,-0.731035,0.141718,2.86346091832644,1.39315878508744,-0.133777785918389
-9.637025,0.349182,-1.580327,0.257769,-0.002662,0.104188,0.828493,-0.731035,0.141718,2.86261438199439,1.3930757249385,-0.135297948959556
-9.606208,0.326748,-1.611775,0.262813,-0.006558,0.09933,0.828302,-0.728139,0.147023,2.86182069418744,1.39300517878972,-0.13692934174
-9.613772,0.319088,-1.611691,0.266913,-0.005041,0.095498,0.828302,-0.728139,0.147023,2.86110603482228,1.3929334109115,-0.138338781186944
-9.598451,0.311614,-1.61218,0.277907,-0.006717,0.097769,0.828302,-0.728139,0.147023,2.86038291061739,1.39286391195939,-0.139784750344278
-9.575217,0.273839,-1.620878,0.280433,-0.007075,0.095517,0.828302,-0.728139,0.147023,2.85969563544506,1.39279666448011,-0.141200752223667
-9.559869,0.266393,-1.628958,0.282301,-0.00521,0.092645,0.833518,-0.7227,0.152705,2.85904857262472,1.39272681646244,-0.142749311747778
-9.513871,0.236346,-1.62294,0.280447,-0.003257,0.096197,0.833518,-0.7227,0.152705,2.85836868018889,1.39264958570828,-0.144157878530833
