ax, ay, az, gx, gy, gz, mx, my, mz, phi, theta, psi
-9.679369,0.768074,-0.715451,-0.151815,-0.010157,0.003513,0.501713,-0.590202,-0.085273,0,0,0
-9.671732,0.760482,-0.700567,-0.150877,-0.00827,0.002249,0.501713,-0.590202,-0.085273,0,0,0
-9.671687,0.745204,-0.678009,-0.149609,-0.000667,0.00137,0.494026,-0.582097,-0.085573,0,0,0
-9.656709,0.74505,-0.602482,-0.14389,-0.007098,-0.002223,0.494026,-0.582097,-0.085573,2.38409997700767,1.47965314568711,-0.668994242670055
-9.687258,0.752428,-0.609202,-0.12832,-0.00689,0.003307,0.494026,-0.582097,-0.085573,2.38352309381728,1.47963872927967,-0.669254872467111
-9.671761,0.737467,-0.640161,-0.121463,-0.007557,0.007828,0.494026,-0.582097,-0.085573,2.38286123061739,1.4796177329865,-0.669618075177667
-9.710243,0.767465,-0.616006,-0.108048,-0.00709,0.003053,0.493771,-0.590532,-0.038491,2.38233658508739,1.47960408452328,-0.669877134179722
-9.702606,0.759874,-0.601122,-0.089371,-0.008538,0.003422,0.493771,-0.590532,-0.038491,2.38174783366811,1.479576106919,-0.670232413102167
-9.679417,0.737377,-0.632379,-0.081339,-0.013066,0.002753,0.493771,-0.590532,-0.038491,2.38118365646394,1.47957376817978,-0.670598233804389
-9.664069,0.729931,-0.640459,-0.067784,-0.012866,0.004409,0.493771,-0.590532,-0.038491,2.38062436617756,1.47956820058417,-0.670993184027222
-9.671613,0.729953,-0.663041,-0.056763,-0.016122,0.007952,0.489063,-0.577309,-0.041133,2.37996122888839,1.47956240609594,-0.671520063576778
-9.686805,0.722231,-0.662766,-0.047086,-0.018749,0.008922,0.489063,-0.577309,-0.041133,2.37917687858506,1.47954341692972,-0.672150772675833
-9.702347,0.75247,-0.654365,-0.045231,-0.019748,0.005379,0.489063,-0.577309,-0.041133,2.37852515573956,1.47954853074011,-0.672695157863
-9.694534,0.737392,-0.669952,-0.026513,-0.0215,0.007675,0.489063,-0.577309,-0.041133,2.37784173774161,1.47955282424644,-0.673318344599333
-9.709818,0.737241,-0.661979,-0.026463,-0.019578,0.009951,0.496595,-0.592986,-0.09089,2.37714985490394,1.47954966520317,-0.673950170708167
-9.694682,0.744907,-0.647072,-0.017772,-0.026965,0.009899,0.496595,-0.592986,-0.09089,2.37626586383778,1.47954352164939,-0.674795974002555
-9.679268,0.75285,-0.708074,-0.012728,-0.018478,0.005179,0.496595,-0.592986,-0.09089,2.37572322397839,1.47954655851972,-0.675312399038722
-9.671704,0.76051,-0.708158,-0.013624,-0.02543,0.008319,0.496595,-0.592986,-0.09089,2.37498475834233,1.47955664651428,-0.676023236136056
-9.686979,0.752705,-0.685111,-0.003028,-0.017603,0.007153,0.486069,-0.590123,-0.091467,2.37444398598367,1.47955462193406,-0.676562140994
-9.679536,0.767907,-0.669906,-0.007542,-0.025183,0.006734,0.486069,-0.590123,-0.091467,2.37368180134311,1.47955057277361,-0.677311340395889
-9.710177,0.782855,-0.668928,0.003494,-0.0224,0.010989,0.486069,-0.590123,-0.091467,2.37299094824883,1.47955045060067,-0.678017308028722
-9.694792,0.767783,-0.669524,0.005992,-0.018958,0.007492,0.486069,-0.590123,-0.091467,2.37244041950789,1.47955017134822,-0.678588675983333
-9.671779,0.752774,-0.670311,0.011078,-0.027286,0.004519,0.501431,-0.589956,-0.080033,2.37180257201822,1.47956999827178,-0.679260470098278
-9.679489,0.775616,-0.700162,0.007566,-0.014223,0.005939,0.501431,-0.589956,-0.080033,2.37130232617056,1.47954750099672,-0.679784557123389
-9.664178,0.775795,-0.715726,0.009091,-0.014902,0.002073,0.501431,-0.589956,-0.080033,2.37094298063439,1.47954929868433,-0.680171705731056
-9.671667,0.775872,-0.753489,-0.001204,-0.013214,0.002379,0.501431,-0.589956,-0.080033,2.37058405397689,1.47954751845,-0.680532587155667
-9.656318,0.768426,-0.761569,-0.005004,-0.016965,0.005221,0.488914,-0.59307,-0.096607,2.37008852051422,1.47954750099672,-0.681021104400667
-9.679018,0.7531,-0.776392,-0.00956,-0.013764,0.002987,0.488914,-0.59307,-0.096607,2.36961267434889,1.47952926232144,-0.681477699600611
-9.671362,0.75319,-0.784173,-0.021673,-0.011381,0.008445,0.488914,-0.59307,-0.096607,2.36911893857383,1.47951357182472,-0.681922583651167
-9.709798,0.767909,-0.73746,-0.03086,-0.016119,0.000317,0.488914,-0.59307,-0.096607,2.36867093038656,1.47952053568256,-0.682298457441389
-9.671658,0.768219,-0.738414,-0.034415,-0.013865,-0.000316,0.492225,-0.590967,-0.106869,2.36826938282472,1.47952454993644,-0.682618777448444
-9.686979,0.752705,-0.685111,-0.037471,-0.013142,0.007086,0.492225,-0.590967,-0.106869,2.36765614445672,1.47949796859439,-0.683143265898944
-9.671779,0.752774,-0.670311,-0.02556,-0.011986,0.007138,0.492225,-0.590967,-0.106869,2.36716713851994,1.47948555931389,-0.683573646275667
-9.694599,0.74499,-0.669845,-0.024909,-0.013578,0.007446,0.492225,-0.590967,-0.106869,2.36664343546694,1.47947545386606,-0.684040469096389
-9.694691,0.75256,-0.662147,-0.018807,-0.014595,0.006812,0.4865,-0.574607,-0.041233,2.36612805762744,1.47946824566233,-0.684514273228222
-9.687183,0.760164,-0.647049,-0.010403,-0.015933,0.008435,0.4865,-0.574607,-0.041233,2.36550246233878,1.4794443172185,-0.685072655944167
-9.671715,0.745176,-0.670418,-0.003686,-0.020459,0.006475,0.4865,-0.574607,-0.041233,2.36491950540772,1.47944810457978,-0.685652261845889
-9.664059,0.745266,-0.678199,-0.000733,-0.019197,0.009074,0.4865,-0.574607,-0.041233,2.36431748949733,1.47944505025617,-0.686258431636389
-9.694865,0.783034,-0.684492,0.004326,-0.016105,0.004943,0.497831,-0.583625,-0.059114,2.36386770107572,1.47944370635378,-0.686724451606333
-9.656274,0.73016,-0.686195,0.002073,-0.013223,0.004962,0.497831,-0.583625,-0.059114,2.36338920201217,1.4794213836115,-0.687014315643667
-9.66416,0.760489,-0.685576,0.005027,-0.010691,0.007577,0.497831,-0.583625,-0.059114,2.36299385036394,1.47940572802133,-0.687427399822111
-9.671826,0.745065,-0.640054,0.009269,-0.010711,0.010167,0.497831,-0.583625,-0.059114,2.36255860052272,1.4793855694855,-0.6878911857725
-9.679637,0.78313,-0.677283,0.008791,-0.00854,0.003109,0.491844,-0.585182,-0.09627,2.36230086796978,1.47937391069594,-0.688175517120778
-9.664344,0.775629,-0.670181,0.011787,-0.012661,0.00758,0.491844,-0.585182,-0.09627,2.36181304885589,1.47934537458678,-0.688697719191889
-9.641387,0.760564,-0.655786,0.019666,-0.00708,-0.000061,0.491844,-0.585182,-0.09627,2.36167213109111,1.47933666540117,-0.688892043986667
-9.648877,0.737653,-0.640734,0.018541,-0.000977,0.007406,0.491844,-0.585182,-0.09627,2.36150077480989,1.47930401031844,-0.689114136946389
-9.656708,0.768038,-0.655297,0.030381,0.00174,0.004258,0.499179,-0.59618,-0.043531,2.36147215143433,1.47927203591356,-0.689222609067778
-9.725571,0.80558,-0.683407,0.030345,0.001724,0.002654,0.499179,-0.59618,-0.043531,2.36140198925767,1.47922662248478,-0.689354817646944
-9.679444,0.760337,-0.677604,0.042284,0.000351,0.003962,0.499179,-0.59618,-0.043531,2.36138237177344,1.47919765004367,-0.689484128982
-9.687044,0.760303,-0.685004,0.046411,-0.007332,0.001317,0.499179,-0.59618,-0.043531,2.36127719832156,1.47918696863767,-0.689709712597278
-9.687007,0.752677,-0.67752,0.052011,0.001869,0.007231,0.491067,-0.587707,-0.035971,2.36124785936161,1.47914953135683,-0.6898732149035
-9.7175,0.760111,-0.699422,0.053619,-0.007358,0.007137,0.491067,-0.587707,-0.035971,2.36097759535522,1.47911221624894,-0.690322741525945
-9.664068,0.752919,-0.693274,0.052409,-0.004458,0.010703,0.491067,-0.587707,-0.035971,2.36076141905667,1.47907991023178,-0.690674861405111
-9.687053,0.767956,-0.700078,0.053661,-0.006707,0.009075,0.491067,-0.587707,-0.035971,2.36053696990444,1.4790544458995,-0.6910384306345
-9.694441,0.75281,-0.730465,0.055472,-0.007403,0.0036,0.491816,-0.582903,-0.046333,2.36040947371028,1.47903985495928,-0.691309183332667
-9.65632,0.745438,-0.708754,0.054346,-0.009873,0.010971,0.491816,-0.582903,-0.046333,2.36001742073156,1.47900049781789,-0.691789131018278
-9.717492,0.752457,-0.684347,0.050078,-0.010499,0.00709,0.491816,-0.582903,-0.046333,2.3597501935955,1.47898522619983,-0.692186664326222
-9.64905,0.791115,-0.715894,0.049741,-0.014309,0.006401,0.491816,-0.582903,-0.046333,2.35942259557161,1.47897793072972,-0.692643975110556
-9.6796,0.775505,-0.669799,0.051108,-0.009214,0.010004,0.491053,-0.595403,-0.088647,2.35912664034033,1.47895524146861,-0.693072941771778
-9.702438,0.783028,-0.699482,0.048567,-0.007908,0.011621,0.491053,-0.595403,-0.088647,2.35874790421256,1.478911032316,-0.693577969817556
-9.67164,0.752912,-0.708265,0.054584,-0.013082,0.007075,0.491053,-0.595403,-0.088647,2.35844341432844,1.47890033345672,-0.694024232677056
-9.67223,0.805958,-0.669562,0.053074,-0.006044,0.011656,0.491053,-0.595403,-0.088647,2.35818189441422,1.47886905718294,-0.694423546219333
-9.687293,0.783041,-0.669501,0.057462,-0.004225,0.006218,0.499172,-0.587992,-0.038114,2.35807083920772,1.47884415135556,-0.694682797207444
-9.694968,0.77527,-0.639054,0.066454,-0.006859,0.005254,0.499172,-0.587992,-0.038114,2.35788052866683,1.47880927970656,-0.695052108565222
-9.649255,0.775586,-0.625017,0.070611,-0.005636,0.003992,0.499172,-0.587992,-0.038114,2.35781830773156,1.47879079668539,-0.695295337444333
-9.648996,0.768183,-0.67826,0.078426,-0.008539,0.00817,0.499172,-0.587992,-0.038114,2.3576399875925,1.47877007964467,-0.695674754249944
-9.664234,0.752752,-0.647729,0.083759,-0.004512,0.001794,0.488738,-0.582481,-0.038632,2.35767442290956,1.4787534815775,-0.695853912146333
-9.648951,0.752904,-0.655702,0.093409,-0.008418,0.001461,0.488738,-0.582481,-0.038632,2.35759476614978,1.47872808705833,-0.696170985843722
-9.679454,0.745003,-0.639863,0.098868,-0.001491,0.000913,0.488738,-0.582481,-0.038632,2.35774170529539,1.47870768417661,-0.696275112098944
-9.672028,0.775511,-0.654808,0.102437,-0.000245,0.002228,0.488738,-0.582481,-0.038632,2.35789614935044,1.47868277834922,-0.696380634616389
-9.687164,0.767845,-0.669715,0.106935,-0.003468,0.001886,0.496729,-0.584921,-0.088093,2.35800683803811,1.47866417315511,-0.696541414211278
-9.663937,0.760711,-0.746303,0.107241,-0.002524,0.001251,0.496729,-0.584921,-0.088093,2.35807879790239,1.47862872554794,-0.696741149522167
-9.656116,0.737979,-0.746815,0.102496,-0.006894,0.005049,0.496729,-0.584921,-0.088093,2.35805244345294,1.47861060904561,-0.697028395567833
-9.671639,0.7759,-0.76108,0.100229,-0.004973,0.004421,0.496729,-0.584921,-0.088093,2.35806918114633,1.47859018871061,-0.697266667716055
-9.694292,0.768283,-0.806159,0.095384,-0.012872,0.003675,0.493708,-0.595457,-0.088488,2.35793739144583,1.4785850923535,-0.697641948094833
-9.686811,0.775859,-0.783471,0.092902,-0.003923,0.00795,0.493708,-0.595457,-0.088488,2.35781923275528,1.47854027233617,-0.697996633605833
-9.694439,0.775797,-0.78328,0.087388,-0.007061,0.005965,0.493708,-0.595457,-0.088488,2.357734706531,1.47852082938472,-0.698304352346333
-9.671463,0.768413,-0.79155,0.075218,-0.009142,0.008797,0.493708,-0.595457,-0.088488,2.35752600023533,1.47850005998417,-0.698706266427
-9.701975,0.768165,-0.790787,0.068746,-0.005918,0.007203,0.493764,-0.582344,-0.033074,2.357393215698,1.47847641079278,-0.699015660682167
-9.67174,0.791123,-0.768457,0.065149,-0.007489,0.004598,0.493764,-0.582344,-0.033074,2.35720342875544,1.47844373825678,-0.699396369030333
-9.709908,0.790786,-0.759911,0.052063,-0.012405,0.009652,0.493764,-0.582344,-0.033074,2.35685872651933,1.47842721000272,-0.699876718141333
-9.686849,0.760497,-0.73814,0.054233,-0.011184,0.005808,0.493764,-0.582344,-0.033074,2.35661626558444,1.47841530686728,-0.700259835041833
-9.687117,0.775554,-0.699971,0.053955,-0.006402,0.007792,0.490291,-0.583831,-0.067451,2.35642656590828,1.47839143078328,-0.700589265659889
-9.702485,0.775319,-0.669226,0.04595,-0.008532,0.009674,0.490291,-0.583831,-0.067451,2.35607228182267,1.47835165476322,-0.701063209417944
-9.656716,0.775691,-0.670372,0.05257,-0.007374,0.003268,0.490291,-0.583831,-0.067451,2.355947141821,1.47833748270167,-0.701324327906778
-9.649292,0.783212,-0.632501,0.066812,-0.003989,0.006894,0.490291,-0.583831,-0.067451,2.35585312101361,1.47831091881289,-0.701589949341278
-9.679757,0.790673,-0.661994,0.072829,-0.004403,0.002405,0.485525,-0.590124,-0.033728,2.35585186437761,1.47829301174989,-0.701777519717556
-9.702521,0.782945,-0.67671,0.075508,-0.010744,0.007174,0.485525,-0.590124,-0.033728,2.35557823188861,1.4782615085835,-0.702263279344667
-9.664482,0.798478,-0.685041,0.079994,-0.006665,0.006267,0.485525,-0.590124,-0.033728,2.35547843404628,1.47824075663622,-0.702567821588611
-9.656624,0.768121,-0.678069,0.08385,-0.004481,0.00598,0.485525,-0.590124,-0.033728,2.35543542916983,1.47821665365961,-0.702824978183389
-9.679453,0.76799,-0.692678,0.089867,-0.002353,0.001518,0.493778,-0.598719,-0.043908,2.35553295808606,1.47819668710983,-0.702956122112611
-9.679193,0.760587,-0.745921,0.086724,-0.006742,0.005,0.493778,-0.598719,-0.043908,2.35540336749856,1.47816219943294,-0.703242617667333
-9.664002,0.768309,-0.746196,0.087018,0.000232,0.003789,0.493778,-0.598719,-0.043908,2.35549990157794,1.4781336458705,-0.7033676005895
-9.679305,0.760476,-0.715558,0.077313,0.001261,0.001515,0.493778,-0.598719,-0.043908,2.35563500740122,1.47810730887433,-0.7034294899125
-9.671694,0.775844,-0.745898,0.074772,-0.003783,0.00306,0.495959,-0.595635,-0.03321,2.35563837588383,1.47808713288522,-0.703617269728111
-9.679544,0.798548,-0.737796,0.072176,0.001315,0.002143,0.495959,-0.595635,-0.03321,2.35568284683561,1.47804323789161,-0.703771731236444
-9.68707,0.783263,-0.730228,0.066389,-0.00212,0.002408,0.495959,-0.595635,-0.03321,2.35570941072439,1.47802129912144,-0.703915197179778
-9.671631,0.745259,-0.69319,0.068357,0.002639,0.004074,0.495959,-0.595635,-0.03321,2.35579971398361,1.47798798081417,-0.703999566324556
-9.694599,0.74499,-0.669845,0.073228,0.001654,0.006013,0.496313,-0.592741,-0.08565,2.35584669820739,1.47795298699222,-0.704139698691833
-9.694773,0.775464,-0.69219,0.073864,-0.001531,0.005659,0.496313,-0.592741,-0.08565,2.3557745114505,1.47790795753556,-0.704400433208556
-9.67211,0.798416,-0.684851,0.081009,-0.00634,0.008528,0.496313,-0.592741,-0.08565,2.35564165710006,1.47788265028278,-0.704740719765389
-9.69469,0.775548,-0.714962,0.079999,-0.013969,0.006509,0.496313,-0.592741,-0.08565,2.35539982448317,1.47787435997583,-0.705187907648611
-9.694966,0.798258,-0.691869,0.082226,-0.007331,0.005303,0.486648,-0.582918,-0.049271,2.35531252318772,1.47785648781939,-0.705485486034722
-9.687135,0.79086,-0.730121,0.082861,-0.014327,0.004905,0.486648,-0.582918,-0.049271,2.35503149050894,1.47783573587211,-0.705858078608722
-9.656475,0.783594,-0.753764,0.08151,-0.007666,0.002074,0.486648,-0.582918,-0.049271,2.35499733444433,1.47782414689567,-0.7061004697305
-9.641137,0.760813,-0.724103,0.076339,-0.006669,0.0011,0.486648,-0.582918,-0.049271,2.35498766532844,1.47781252301267,-0.7063053013985
-9.656419,0.783649,-0.768946,0.074301,-0.005419,-0.00372,0.490736,-0.584692,-0.028052,2.35508789950272,1.4778072346695,-0.706394627274167
-9.671759,0.783442,-0.745791,0.06687,-0.011391,-0.005097,0.490736,-0.584692,-0.028052,2.35501728354083,1.47779850803061,-0.706682222385389
-9.656687,0.798706,-0.730778,0.062484,-0.00146,0.000469,0.490736,-0.584692,-0.028052,2.35508379798244,1.47777880328,-0.706775754501
-9.65655,0.775857,-0.715917,0.065269,-0.006608,-0.004729,0.490736,-0.584692,-0.028052,2.35515802677283,1.47777740701778,-0.706868518672389
-9.671668,0.752885,-0.700674,0.063702,0.000091,-0.00273,0.490969,-0.582167,-0.030613,2.35531754973172,1.47776061696456,-0.706871695168944
-9.664151,0.752836,-0.670502,0.073038,0.001589,-0.002682,0.490969,-0.582167,-0.030613,2.35546216759139,1.47772480283856,-0.706928365961889
-9.686962,0.737399,-0.654961,0.076635,-0.002872,-0.000143,0.490969,-0.582167,-0.030613,2.35554887547539,1.47770867600989,-0.707037152242278
-9.664188,0.760461,-0.677986,0.082394,-0.000717,-0.00171,0.490969,-0.582167,-0.030613,2.35572045864922,1.47769151943783,-0.707075148028
-9.702687,0.805766,-0.68398,0.088265,-0.003924,0.00182,0.487283,-0.586671,-0.015171,2.35577917147567,1.47767378690761,-0.707241250872611
-9.710269,0.790425,-0.66123,0.095284,-0.00719,-0.001089,0.487283,-0.586671,-0.015171,2.35578608297367,1.47765036460883,-0.707597158113055
-9.702392,0.767749,-0.676924,0.105304,-0.011082,0.000832,0.487283,-0.586671,-0.015171,2.35577061936956,1.47764703103278,-0.707880546984333
-9.671917,0.775622,-0.685171,0.10205,-0.010109,-0.000779,0.487283,-0.586671,-0.015171,2.35579590916906,1.4776448144665,-0.708114822331944
-9.67164,0.752912,-0.708265,0.103428,-0.010726,0.003402,0.485059,-0.595174,-0.028607,2.35573391512639,1.47763631472022,-0.708440238696111
-9.694791,0.790771,-0.722339,0.109515,-0.012384,0.00212,0.485059,-0.595174,-0.028607,2.35561479650556,1.477616697236,-0.708854370071222
-9.67959,0.790839,-0.707539,0.113056,-0.013052,0.002124,0.485059,-0.595174,-0.028607,2.3555571134225,1.47761455048283,-0.7091996482655
-9.671816,0.760399,-0.677795,0.113421,-0.013039,0.004055,0.485059,-0.595174,-0.028607,2.35546406999867,1.47760896543394,-0.709581333997222
-9.641166,0.737798,-0.663698,0.12191,-0.016888,0.009512,0.483083,-0.587053,-0.083707,2.35521633817389,1.47760050059422,-0.710139716713167
-9.671972,0.775567,-0.66999,0.122476,-0.016287,0.005982,0.483083,-0.587053,-0.083707,2.35498279586394,1.47758098782967,-0.710684590592111
-9.679564,0.767879,-0.662315,0.129824,-0.017649,0.003417,0.483083,-0.587053,-0.083707,2.35485570109517,1.47758463556472,-0.711141674483833
-9.672129,0.790735,-0.662185,0.135841,-0.024093,-0.001139,0.483083,-0.587053,-0.083707,2.35470755767339,1.47760772625122,-0.711634991380222
-9.648968,0.76821,-0.685851,0.14034,-0.024774,-0.001456,0.490827,-0.582044,-0.027993,2.35456360303828,1.47763257971878,-0.712135411760667
-9.656375,0.745383,-0.693572,0.15062,-0.019165,-0.002327,0.490827,-0.582044,-0.027993,2.35450286563161,1.47763284151794,-0.712573698472222
-9.663937,0.760711,-0.746303,0.157161,-0.022686,0.002487,0.490827,-0.582044,-0.027993,2.35436589230761,1.4776470135795,-0.713109322113944
-9.664113,0.768198,-0.715833,0.151563,-0.020136,-0.003298,0.490827,-0.582044,-0.027993,2.35437247219333,1.47766692776944,-0.713486749245889
-9.687163,0.790833,-0.72253,0.142242,-0.020359,-0.002686,0.484184,-0.585757,-0.054729,2.35433983456389,1.47768614382828,-0.713880111220445
-9.656494,0.775913,-0.731098,0.141493,-0.015307,-0.007465,0.484184,-0.585757,-0.054729,2.35442678679378,1.47768867455356,-0.714150863918611
-9.687208,0.806112,-0.745089,0.135706,-0.018109,-0.00719,0.484184,-0.585757,-0.054729,2.35450555343639,1.47771190486628,-0.714415961754778
-9.694643,0.783256,-0.745219,0.132179,-0.016165,-0.006537,0.484184,-0.585757,-0.054729,2.35459999312244,1.47773054496694,-0.714656450469278
-9.679406,0.775699,-0.722935,0.127953,-0.016455,-0.008488,0.495656,-0.594897,-0.075229,2.35471521966233,1.47775316441494,-0.714865453470667
-9.679314,0.768129,-0.730633,0.121837,-0.010363,-0.008442,0.495656,-0.594897,-0.075229,2.35486547493072,1.47774869637583,-0.715023266008333
-9.656273,0.753147,-0.73901,0.120584,-0.015736,-0.006897,0.495656,-0.594897,-0.075229,2.35494586472817,1.47776723175683,-0.715248762357222
-9.663956,0.75303,-0.723638,0.118918,-0.017645,-0.009499,0.495656,-0.594897,-0.075229,2.35503505097761,1.47779374328578,-0.715461221107611
-9.664352,0.80627,-0.73807,0.114362,-0.022065,-0.011814,0.488314,-0.582113,-0.030772,2.35507275005761,1.47783215795017,-0.715713962023111
-9.671777,0.798749,-0.775941,0.110891,-0.018515,-0.008567,0.488314,-0.582113,-0.030772,2.35504213700839,1.47784243793078,-0.715981224065722
-9.694541,0.791021,-0.790657,0.1025,-0.016855,-0.009543,0.488314,-0.582113,-0.030772,2.35510596364522,1.47786762301061,-0.716177922506278
-9.701836,0.768304,-0.828741,0.092849,-0.022159,-0.009312,0.488314,-0.582113,-0.030772,2.35504049640028,1.47790177907522,-0.716480248183945
-9.686792,0.78354,-0.806136,0.074145,-0.016273,-0.010921,0.48842,-0.595841,-0.041547,2.3550704811315,1.47792837787056,-0.716639753689556
-9.671582,0.798943,-0.829077,0.060058,-0.014839,-0.007412,0.48842,-0.595841,-0.041547,2.35495872779389,1.47793031518439,-0.716789851878444
-9.671591,0.806596,-0.844151,0.045774,-0.018237,-0.01297,0.48842,-0.595841,-0.041547,2.354919213573,1.47796401746378,-0.716947908762
-9.648688,0.814463,-0.86739,0.024962,-0.023076,-0.007943,0.48842,-0.595841,-0.041547,2.35464018802117,1.47799735322433,-0.7172942690595
-9.648338,0.776502,-0.875516,0.00264,-0.014962,-0.013082,0.480118,-0.584476,-0.028688,2.35455705805911,1.47802545300156,-0.717387818628389
-9.656187,0.799205,-0.867413,-0.021845,-0.015368,-0.014134,0.480118,-0.584476,-0.028688,2.35436119737589,1.47803988686228,-0.717525158471222
-9.671342,0.783858,-0.859654,-0.045869,-0.014892,-0.023545,0.480118,-0.584476,-0.028688,2.35435653735072,1.47808639984756,-0.717418117518611
-9.679024,0.806728,-0.897096,-0.069669,-0.011162,-0.022618,0.480118,-0.584476,-0.028688,2.35434585594472,1.47812467488572,-0.717257355377
-9.663557,0.768752,-0.86765,-0.090675,-0.005589,-0.026493,0.48993,-0.602609,-0.073105,2.35446256601322,1.47816000031994,-0.716915916903833
-9.671526,0.798998,-0.844258,-0.110079,-0.002893,-0.030712,0.48993,-0.602609,-0.073105,2.35459910300528,1.47818172965078,-0.716505223824444
-9.655995,0.753425,-0.814919,-0.125767,-0.003345,-0.02691,0.48993,-0.602609,-0.073105,2.35467907392406,1.47821380877533,-0.716112559981
-9.686857,0.791138,-0.806029,-0.141826,-0.002861,-0.025346,0.48993,-0.602609,-0.073105,2.35469853432878,1.47824227507139,-0.715740368832389
-9.694448,0.78345,-0.798354,-0.151476,0.000411,-0.02502,0.482398,-0.586932,-0.023349,2.35475021348428,1.47826437092106,-0.715311594157222
-9.671473,0.753079,-0.75381,-0.161481,-0.001088,-0.026361,0.482398,-0.586932,-0.023349,2.35471158938056,1.47827508723361,-0.714991117070667
-9.671972,0.775567,-0.66999,-0.163004,0.000865,-0.022479,0.482398,-0.586932,-0.023349,2.354694904047,1.47829189474011,-0.714602066055722
-9.71788,0.775057,-0.63089,-0.155999,-0.00209,-0.026026,0.482398,-0.586932,-0.023349,2.35470691190211,1.47832018650339,-0.714201775129889
-9.687064,0.729634,-0.609523,-0.13828,-0.001302,-0.025318,0.485617,-0.587477,-0.033669,2.35476490914417,1.47834584282172,-0.713799791236111
-9.710418,0.774952,-0.585536,-0.129245,-0.003922,-0.024347,0.485617,-0.587477,-0.033669,2.35471200825922,1.4783582695555,-0.713494934833166
-9.717862,0.75975,-0.60074,-0.110197,-0.004087,-0.021709,0.485617,-0.587477,-0.033669,2.35471843106544,1.47838244234522,-0.713215246056778
-9.687304,0.744719,-0.578946,-0.096342,-0.011201,-0.021099,0.485617,-0.587477,-0.033669,2.35461203588411,1.47841809939172,-0.713083648342333
-9.687359,0.767651,-0.616579,-0.084048,-0.013203,-0.018181,0.487834,-0.594858,-0.078327,2.35444249474378,1.47845211583011,-0.713046333234444
-9.671909,0.744982,-0.617282,-0.07749,-0.007507,-0.012626,0.487834,-0.594858,-0.078327,2.35422816849267,1.47845003889006,-0.713069842799611
-9.710398,0.80562,-0.661016,-0.065323,-0.010509,-0.01551,0.487834,-0.594858,-0.078327,2.35410596064167,1.47847457819861,-0.713031986640111
-9.710344,0.782688,-0.623383,-0.05686,-0.003252,-0.011218,0.487834,-0.594858,-0.078327,2.35406196092839,1.47847871462544,-0.712936866276222
-9.664346,0.752641,-0.617366,-0.052249,-0.005162,-0.006398,0.490114,-0.597314,-0.072987,2.35390111152039,1.47847768488206,-0.712970655822
-9.671946,0.752607,-0.624766,-0.03938,-0.003384,-0.006657,0.490114,-0.597314,-0.072987,2.35374712125056,1.47845778814539,-0.713029229022222
-9.687221,0.744802,-0.601718,-0.027581,-0.004174,-0.011776,0.490114,-0.597314,-0.072987,2.35376928691333,1.47846454256389,-0.712941177235833
-9.687461,0.759887,-0.571141,-0.005874,-0.010049,-0.005327,0.490114,-0.597314,-0.072987,2.35361044463228,1.47847021487917,-0.713089373017444
-9.679659,0.729474,-0.548987,0.01013,-0.011505,-0.009476,0.485695,-0.592525,-0.086286,2.3535427259145,1.4784858181095,-0.713186256162389
-9.672205,0.760011,-0.571523,0.033727,-0.008205,-0.004852,0.485695,-0.592525,-0.086286,2.35344474321306,1.47847126207583,-0.713372133570722
-9.679805,0.759976,-0.578923,0.049241,-0.008651,-0.001907,0.485695,-0.592525,-0.086286,2.35338531480222,1.47846841719156,-0.713558883642944
-9.695107,0.775131,-0.601099,0.071023,-0.016205,-0.006744,0.485695,-0.592525,-0.086286,2.35332778879867,1.47848744126433,-0.713798429880444
-9.710353,0.790342,-0.638458,0.076865,-0.018786,-0.004497,0.498706,-0.593042,-0.032992,2.35319256080244,1.47850705874856,-0.714130653022944
-9.672029,0.752524,-0.601993,0.086887,-0.013466,-0.002477,0.498706,-0.593042,-0.032992,2.35308045839928,1.47849766888511,-0.714428109236111
-9.679518,0.752601,-0.639756,0.09685,-0.019285,-0.003151,0.498706,-0.593042,-0.032992,2.35295992606294,1.47851576793417,-0.7147957625325
-9.671788,0.760427,-0.685385,0.105484,-0.018755,-0.005692,0.498706,-0.593042,-0.032992,2.35291941700522,1.47853740999861,-0.715104720455722
-9.71762,0.767653,-0.684133,0.115792,-0.018854,-0.005334,0.479694,-0.584107,-0.020829,2.3528958725335,1.47855861573111,-0.7154225097375
-9.664078,0.737585,-0.655534,0.123651,-0.02269,0.000763,0.479694,-0.584107,-0.020829,2.35264033909356,1.47855941858189,-0.716062538886889
-9.710039,0.760006,-0.654067,0.128381,-0.027854,-0.003781,0.479694,-0.584107,-0.020829,2.352445839766,1.47859369681944,-0.716583623948222
-9.67963,0.75249,-0.609393,0.139019,-0.021597,-0.003034,0.479694,-0.584107,-0.020829,2.35238360137744,1.47861561813633,-0.716998610533944
-9.710399,0.782633,-0.608201,0.151945,-0.019166,-0.000707,0.511724,-0.595344,-0.076895,2.35235592047889,1.47862912697333,-0.717411328193555
-9.672047,0.76783,-0.632142,0.155471,-0.022062,-0.001374,0.511724,-0.595344,-0.076895,2.35223034414528,1.47863282706822,-0.717930598114
-9.679628,0.775477,-0.662208,0.163301,-0.019878,0.003506,0.511724,-0.595344,-0.076895,2.352137021469,1.47864010508506,-0.718437738006389
-9.671595,0.737634,-0.685706,0.168989,-0.020924,-0.001317,0.511724,-0.595344,-0.076895,2.35212967363906,1.47865778525544,-0.718872848221389
-9.694947,0.805939,-0.714534,0.166133,-0.022471,0.000592,0.478402,-0.582511,-0.044508,2.35204898713589,1.47867480220128,-0.719374420518167
-9.687079,0.790916,-0.745302,0.16973,-0.017087,0.003237,0.478402,-0.582511,-0.044508,2.35196224434533,1.47866200894867,-0.719735144863278
-9.679147,0.768296,-0.776178,0.158763,-0.023023,0.002167,0.478402,-0.582511,-0.044508,2.35182244359033,1.47867719330033,-0.720277575283333
-9.679147,0.768296,-0.776178,0.149771,-0.014989,0.003191,0.478402,-0.582511,-0.044508,2.35179500703767,1.47867640790283,-0.720684568267833
-9.717517,0.798405,-0.782386,0.141052,-0.010789,0.001923,0.48196,-0.594259,-0.068165,2.3518506655405,1.47867049124167,-0.720986230720944
-9.702003,0.768138,-0.783196,0.125251,-0.012868,0.000557,0.48196,-0.594259,-0.068165,2.35179008521333,1.47865453894578,-0.721364338530722
-9.70192,0.768221,-0.805968,0.118176,-0.013116,0.000852,0.48196,-0.594259,-0.068165,2.35176428926878,1.47865460875889,-0.721690365759611
-9.678787,0.745669,-0.822044,0.098567,-0.017361,0.002025,0.48196,-0.594259,-0.068165,2.35158556770433,1.47866007163483,-0.722120746136333
-9.671342,0.783858,-0.859654,0.080435,-0.012779,-0.002814,0.479934,-0.589771,-0.028807,2.35154170761728,1.47866604065583,-0.722370170929056
-9.655781,0.7613,-0.89072,0.059238,-0.011286,-0.000618,0.479934,-0.589771,-0.028807,2.35136907724678,1.47864940768211,-0.722682183175889
-9.655762,0.768981,-0.913386,0.034612,-0.008883,-0.008079,0.479934,-0.589771,-0.028807,2.35138579748689,1.47865788997511,-0.722755713835167
-9.648235,0.784266,-0.920954,0.006993,-0.007006,-0.005254,0.479934,-0.589771,-0.028807,2.35131575748317,1.47865804705461,-0.7228470293845
-9.655973,0.807081,-0.943214,-0.022371,-0.008336,-0.008586,0.498445,-0.586886,-0.072273,2.35121016515261,1.4786664595345,-0.722900331694833
-9.663408,0.784225,-0.943344,-0.053966,-0.007413,-0.010937,0.498445,-0.586886,-0.072273,2.35102632977778,1.47866125845772,-0.7229522726495
-9.686578,0.814403,-0.934753,-0.08549,-0.005514,-0.010054,0.498445,-0.586886,-0.072273,2.35084511239461,1.47866731474511,-0.7229230558625
-9.655947,0.784121,-0.89799,-0.109471,-0.000574,-0.017488,0.498445,-0.586886,-0.072273,2.35084046982272,1.47867789143144,-0.722656299964944
-9.694383,0.79884,-0.851276,-0.13394,-0.000975,-0.017894,0.480068,-0.581705,-0.026009,2.3507746709655,1.47868989928656,-0.722389526614111
-9.671535,0.806652,-0.859333,-0.151616,0.0027,-0.016626,0.480068,-0.581705,-0.026009,2.35065003710889,1.478676983861,-0.722147641637389
-9.679119,0.768323,-0.783769,-0.161992,0.003092,-0.020199,0.480068,-0.581705,-0.026009,2.35063621411289,1.47868595484578,-0.721758241556889
-9.648765,0.760751,-0.723912,-0.170038,-0.000003,-0.020262,0.480068,-0.581705,-0.026009,2.35054395608656,1.47870045851961,-0.721427432129889
-9.672074,0.79079,-0.677367,-0.177097,0.001978,-0.019295,0.496419,-0.582398,-0.032915,2.35045380990683,1.47870977856994,-0.7210767434195
-9.702411,0.760068,-0.654258,-0.173997,-0.000001,-0.024778,0.496419,-0.582398,-0.032915,2.35037438003967,1.47871632354911,-0.720671827375056
-9.67986,0.782908,-0.616556,-0.163989,0.002456,-0.02343,0.496419,-0.582398,-0.032915,2.35040495818233,1.47873215367206,-0.720232807625833
-9.649098,0.760418,-0.632822,-0.157202,0.001766,-0.02213,0.496419,-0.582398,-0.032915,2.35041455748511,1.4787468842385,-0.719831923288556
-9.710178,0.759867,-0.616113,-0.146522,0.003268,-0.019498,0.491583,-0.585428,-0.043772,2.35042974183678,1.47875428442828,-0.719452244683778
-9.695051,0.775187,-0.616281,-0.128601,0.003693,-0.024262,0.491583,-0.585428,-0.043772,2.35052276780733,1.47875365611028,-0.718919064500944
-9.710556,0.797801,-0.600397,-0.120225,0.000121,-0.023949,0.491583,-0.585428,-0.043772,2.35062788889939,1.47877451277722,-0.718515056026944
-9.695025,0.752227,-0.571057,-0.103479,0.000281,-0.023572,0.491583,-0.585428,-0.043772,2.3507709010575,1.47879440951389,-0.718115061806833
-9.6876,0.759748,-0.533187,-0.085604,0.002393,-0.015762,0.498607,-0.587501,-0.027634,2.35085050545744,1.47879669589328,-0.717823609521222
-9.672206,0.737023,-0.518708,-0.063379,0.003137,-0.015036,0.498607,-0.587501,-0.027634,2.35092415828967,1.47878023745233,-0.717615444277167
-9.710485,0.736575,-0.479799,-0.035773,-0.003828,-0.018558,0.498607,-0.587501,-0.027634,2.35106182974478,1.47879844122106,-0.717390785685611
-9.695294,0.744296,-0.480074,-0.010748,-0.002078,-0.007509,0.498607,-0.587501,-0.027634,2.35108518223044,1.47879392082211,-0.717343766555278
-9.672244,0.721661,-0.473376,0.019405,-0.003676,-0.012256,0.493157,-0.58727,-0.025332,2.35124364053939,1.47880065778733,-0.7172367779625
-9.702857,0.736637,-0.47999,0.049824,-0.00836,-0.004798,0.493157,-0.58727,-0.025332,2.35118389796956,1.47878622392661,-0.717462536110556
-9.695496,0.774743,-0.494827,0.080977,-0.009957,-0.007929,0.493157,-0.58727,-0.025332,2.35129282387617,1.47879631192117,-0.717559855587444
-9.687692,0.767318,-0.525489,0.105489,-0.01621,-0.005662,0.493157,-0.58727,-0.025332,2.35129938630861,1.47881338122683,-0.717821532581167
-9.687544,0.759804,-0.548368,0.128413,-0.019901,-0.002406,0.490644,-0.587339,-0.028111,2.35123002698272,1.47883114866361,-0.718216988949056
-9.702661,0.759818,-0.585941,0.147089,-0.019445,-0.002015,0.490644,-0.587339,-0.028111,2.35114586727728,1.4788313930095,-0.718681961722333
-9.679722,0.76006,-0.601695,0.159628,-0.017666,-0.002599,0.490644,-0.587339,-0.028111,2.35120119416783,1.47884556507106,-0.719030573492667
-9.702596,0.775208,-0.638863,0.167759,-0.017081,0.0013,0.490644,-0.587339,-0.028111,2.351213708168,1.47885177843794,-0.719442610474444
-9.702826,0.805627,-0.646026,0.174175,-0.020962,0.000315,0.49992,-0.583188,-0.048475,2.3511862192555,1.4788665788175,-0.7199108993705
-9.717906,0.798016,-0.676114,0.178632,-0.021024,-0.001924,0.49992,-0.583188,-0.048475,2.35114386015033,1.47886994730011,-0.7202505052495
-9.672101,0.790762,-0.669776,0.183489,-0.019153,-0.000603,0.49992,-0.583188,-0.048475,2.35119192647733,1.47888319433794,-0.720666294686
-9.664012,0.752974,-0.708456,0.18129,-0.024829,0.001901,0.49992,-0.583188,-0.048475,2.35107724098906,1.47890197406483,-0.721240018833111
-9.686729,0.752955,-0.753428,0.184116,-0.020755,-0.001263,0.487812,-0.600768,-0.033806,2.35110842999644,1.47891920045,-0.721674326197333
-9.694072,0.72253,-0.761256,0.177713,-0.021316,0.000317,0.487812,-0.600768,-0.033806,2.35101952299944,1.47891869430494,-0.722188517213944
-9.679147,0.768296,-0.776178,0.170078,-0.022162,0.004469,0.487812,-0.600768,-0.033806,2.35087898920678,1.47892820634133,-0.722760042248056
-9.663715,0.760933,-0.80703,0.167354,-0.024412,-0.002327,0.487812,-0.600768,-0.033806,2.35081783292144,1.47895374048672,-0.723244999024389
-9.686525,0.768483,-0.844304,0.151064,-0.020718,0.003454,0.493666,-0.576803,-0.027716,2.35067675807717,1.47896251948544,-0.723769330395389
-9.679118,0.791311,-0.836584,0.134835,-0.021243,-0.002722,0.493666,-0.576803,-0.027716,2.35054104138917,1.47896717951061,-0.724243745391944
-9.694365,0.783534,-0.821127,0.122653,-0.021426,-0.000511,0.493666,-0.576803,-0.027716,2.35039083848061,1.47898421390972,-0.7247059081875
-9.678694,0.738099,-0.829742,0.110085,-0.018768,-0.001172,0.493666,-0.576803,-0.027716,2.35027302885561,1.47899775765328,-0.725103982547056
-9.64844,0.768738,-0.830077,0.088721,-0.016062,-0.006687,0.495811,-0.587324,-0.025173,2.35025931057928,1.47901636284739,-0.725343895303389
-9.663889,0.791407,-0.829375,0.070401,-0.016194,-0.005461,0.495811,-0.587324,-0.025173,2.35011310447133,1.47901692135228,-0.725685124337222
-9.679138,0.760642,-0.761103,0.057107,-0.012923,-0.009977,0.495811,-0.587324,-0.025173,2.35014375242711,1.47903584070539,-0.725801118821333
-9.686811,0.775859,-0.783471,0.040074,-0.008939,-0.008702,0.495811,-0.587324,-0.025173,2.35018445347089,1.47904550982128,-0.725864247327056
-9.68658,0.768428,-0.829123,0.0236,-0.013565,-0.011384,0.487926,-0.592211,-0.078267,2.35014579446061,1.47906805945617,-0.725965720684056
-9.671214,0.745675,-0.807053,0.011676,-0.013771,-0.012073,0.487926,-0.592211,-0.078267,2.35002555883,1.47907615777706,-0.726118559037556
-9.678869,0.768573,-0.852086,-0.004469,-0.014586,-0.014388,0.487926,-0.592211,-0.078267,2.34995426219028,1.47910586325583,-0.726182350767833
-9.663659,0.760988,-0.822212,-0.022817,-0.016313,-0.01447,0.487926,-0.592211,-0.078267,2.3498051762915,1.47913872777789,-0.726278169262833
-9.648597,0.783905,-0.822273,-0.042039,-0.014823,-0.010334,0.501311,-0.590325,-0.030154,2.34955774117244,1.47916160902506,-0.726424514997
-9.7018,0.760679,-0.821257,-0.056006,-0.006797,-0.016086,0.501311,-0.590325,-0.030154,2.34947932359539,1.47916466334867,-0.726340739263667
-9.678924,0.768518,-0.836905,-0.073509,-0.011433,-0.021669,0.501311,-0.590325,-0.030154,2.3494354111485,1.4792017864705,-0.726203678673278
-9.678905,0.776199,-0.85957,-0.091101,-0.008048,-0.016541,0.501311,-0.590325,-0.030154,2.3493150882515,1.47922381250706,-0.726099185899222
-9.640739,0.753549,-0.815301,-0.114354,-0.009753,-0.020182,0.498819,-0.584484,-0.077454,2.34917319310317,1.47925533312672,-0.725957988882
-9.694356,0.77588,-0.806052,-0.125808,-0.010232,-0.014105,0.498819,-0.584484,-0.077454,2.34881672735783,1.47926081345594,-0.726002913619
-9.671602,0.768274,-0.753596,-0.135297,-0.013369,-0.021255,0.498819,-0.584484,-0.077454,2.34857269562794,1.47930057202272,-0.725911702789333
-9.66391,0.760739,-0.753894,-0.140196,-0.015252,-0.024512,0.498819,-0.584484,-0.077454,2.34834208546867,1.47934945865378,-0.725794713468389
-9.6871,0.760247,-0.669822,-0.144119,-0.01333,-0.0274,0.490834,-0.590232,-0.03341,2.34819422129933,1.47940010806589,-0.725584785443278
-9.694931,0.767645,-0.63157,-0.136259,-0.010817,-0.021228,0.490834,-0.590232,-0.03341,2.347935144844,1.47941942884439,-0.725472438694222
-9.671761,0.737467,-0.640161,-0.131802,-0.01691,-0.023536,0.490834,-0.590232,-0.03341,2.34767435796744,1.47946948484506,-0.725406831823055
-9.694959,0.767617,-0.623979,-0.117617,-0.016723,-0.022518,0.490834,-0.590232,-0.03341,2.34743310130872,1.47951739409256,-0.725357229607611
-9.687332,0.744691,-0.571355,-0.116979,-0.017365,-0.022845,0.49058,-0.592265,-0.078108,2.34718707990517,1.47956701376128,-0.725313980385278
-9.687783,0.797876,-0.570606,-0.096455,-0.01505,-0.026289,0.49058,-0.592265,-0.078108,2.34704254931189,1.47960270571433,-0.725219767591833
-9.672177,0.760038,-0.579114,-0.088352,-0.017649,-0.023718,0.49058,-0.592265,-0.078108,2.34687913427206,1.47965438486983,-0.725165452991389
-9.695089,0.759825,-0.57095,-0.069947,-0.013996,-0.021039,0.49058,-0.592265,-0.078108,2.34678165771567,1.47969487647428,-0.725091136934611
-9.695291,0.790271,-0.585704,-0.062027,-0.017612,-0.026845,0.493256,-0.592811,-0.03069,2.34674467422005,1.47975207086556,-0.724975962754555
-9.710197,0.752186,-0.593448,-0.05225,-0.013854,-0.021299,0.493256,-0.592811,-0.03069,2.34663805214611,1.47977681961344,-0.7249528371615
-9.687351,0.73701,-0.548689,-0.032844,-0.016229,-0.017076,0.493256,-0.592811,-0.03069,2.34651361027556,1.47981415217461,-0.724998721828778
-9.695127,0.744463,-0.525619,-0.022178,-0.012506,-0.015067,0.493256,-0.592811,-0.03069,2.34645008034444,1.47984137928794,-0.725010240992111
-9.702672,0.744484,-0.5482,-0.001598,-0.008903,-0.015923,0.485554,-0.592402,-0.083666,2.34652495490611,1.47986384165644,-0.724934423953445
-9.702635,0.736859,-0.540716,0.022558,-0.0158,-0.015274,0.485554,-0.592402,-0.083666,2.34645138934028,1.47988126002767,-0.725067732089111
-9.694906,0.721697,-0.53353,0.042334,-0.015941,-0.008771,0.485554,-0.592402,-0.083666,2.34636094645483,1.47990325115767,-0.725268200437667
-9.702644,0.744512,-0.555791,0.054656,-0.022062,-0.00461,0.485554,-0.592402,-0.083666,2.346101398761,1.47992854095717,-0.7256694338405
-9.679547,0.729585,-0.57935,0.065978,-0.020563,-0.001982,0.496186,-0.584922,-0.030354,2.34584890219139,1.47994650038,-0.726091995148778
-9.671854,0.745037,-0.632463,0.08072,-0.02581,-0.004888,0.496186,-0.584922,-0.030354,2.3455244457575,1.47996294136767,-0.726612940583889
-9.648628,0.714915,-0.656237,0.08715,-0.027462,-0.005209,0.496186,-0.584922,-0.030354,2.34525114488078,1.47999870313383,-0.7271095386965
-9.702227,0.744928,-0.669654,0.094294,-0.029735,-0.002308,0.496186,-0.584922,-0.030354,2.34489504565428,1.48003324317056,-0.727707208740722
-9.679148,0.745308,-0.723363,0.09586,-0.031988,-0.004261,0.485363,-0.589509,-0.078367,2.34453570011811,1.48007518339706,-0.728312069535389
-9.694671,0.783229,-0.737628,0.09276,-0.035728,0.001163,0.485363,-0.589509,-0.078367,2.34392972231367,1.48009801228439,-0.729156214768389
-9.694634,0.775603,-0.730144,0.087561,-0.030296,-0.001049,0.485363,-0.589509,-0.078367,2.34352040804322,1.48013120841872,-0.729790414523
-9.664103,0.783532,-0.753573,0.073389,-0.034924,-0.001471,0.485363,-0.589509,-0.078367,2.342992167138,1.48017320100506,-0.730508459824055
-9.656087,0.760995,-0.807221,0.066628,-0.031367,-0.001456,0.493206,-0.590041,-0.028011,2.34251633842594,1.48020892786467,-0.731156884000056
-9.648532,0.776308,-0.82238,0.047923,-0.032469,-0.003141,0.493206,-0.590041,-0.028011,2.34194402799433,1.48023360679944,-0.731861472823944
-9.671536,0.783664,-0.806518,0.033612,-0.039053,-0.01002,0.493206,-0.590041,-0.028011,2.34139719934828,1.48029802684772,-0.7324983080235
-9.663706,0.753279,-0.791955,0.015579,-0.036022,-0.010372,0.493206,-0.590041,-0.028011,2.34087114010278,1.48035775196428,-0.733069012753556
-9.663955,0.776017,-0.776453,-0.001621,-0.031777,-0.01682,0.498656,-0.590271,-0.030313,2.34050926384133,1.4804216658675,-0.733431709319056
-9.663845,0.753141,-0.754001,-0.008324,-0.026928,-0.014215,0.498656,-0.590271,-0.030313,2.34011609385283,1.48045652006322,-0.733792887449389
-9.656459,0.7453,-0.6708,-0.015025,-0.031922,-0.011718,0.498656,-0.590271,-0.030313,2.33961890232878,1.48051148043494,-0.734257790409556
-9.68735,0.759998,-0.601504,-0.0141,-0.029405,-0.013615,0.498656,-0.590271,-0.030313,2.33920988476406,1.48056546342311,-0.7346364741775
-9.687543,0.782791,-0.601183,-0.003722,-0.030748,-0.010053,0.493065,-0.589918,-0.025391,2.33873121116772,1.480615344891,-0.735111133519944
-9.710142,0.752242,-0.608629,0.008474,-0.036596,-0.011686,0.493065,-0.589918,-0.025391,2.33813877710683,1.48066227675494,-0.735756538278889
-9.69471,0.744879,-0.639481,0.015534,-0.034449,-0.012605,0.493065,-0.589918,-0.025391,2.33768242625278,1.48072311888128,-0.736257133192111
-9.67165,0.737578,-0.670525,0.02006,-0.041154,-0.0117,0.493065,-0.589918,-0.025391,2.33708552415278,1.48079396173578,-0.73691019994
-9.709956,0.760089,-0.67684,0.018151,-0.029697,-0.010612,0.501382,-0.587186,-0.077354,2.33669088808894,1.48084293563322,-0.737355398149556
-9.732812,0.759931,-0.683858,0.020362,-0.035134,-0.012594,0.501382,-0.587186,-0.077354,2.33617151344883,1.48088895992672,-0.737930832717889
-9.686804,0.745218,-0.715581,0.012426,-0.035015,-0.007472,0.501382,-0.587186,-0.077354,2.33559480479122,1.480941441933,-0.738544455058
-9.679379,0.752739,-0.677711,0.011217,-0.034022,-0.003924,0.501382,-0.587186,-0.077354,2.33496613772567,1.48098577325856,-0.739207208375056
-9.71002,0.767687,-0.676733,0.008879,-0.033078,-0.007782,0.491406,-0.598911,-0.049307,2.33442402146461,1.48103541038056,-0.739777197520722
-9.710067,0.759978,-0.646476,0.01056,-0.031481,-0.00454,0.491406,-0.598911,-0.049307,2.33379134014517,1.48106094452594,-0.740284983184389
-9.679398,0.745058,-0.655045,0.013744,-0.0293,-0.006118,0.491406,-0.598911,-0.049307,2.33330423661567,1.48110098234517,-0.740811915093778
-9.694276,0.707001,-0.67038,0.016612,-0.033785,-0.007446,0.491406,-0.598911,-0.049307,2.33275913584411,1.48115112561222,-0.741404279341556
-9.709883,0.744838,-0.661872,0.011168,-0.03277,-0.006163,0.493531,-0.584868,-0.030513,2.33219558695794,1.48119718481228,-0.742001513053833
-9.663948,0.745377,-0.708563,0.012188,-0.037522,-0.003639,0.493531,-0.584868,-0.030513,2.33143123811094,1.48123090454494,-0.742798394810611
-9.671455,0.737772,-0.723661,0.004427,-0.039048,-0.005291,0.493531,-0.584868,-0.030513,2.33070612423239,1.48128610926256,-0.743540909607111
-9.671565,0.760649,-0.746112,-0.001403,-0.034877,-0.006874,0.493531,-0.584868,-0.030513,2.33008024969128,1.481336968114,-0.744169157794
-9.671381,0.745509,-0.761508,-0.010108,-0.03194,-0.007516,0.490693,-0.590109,-0.03079,2.32950362830006,1.48138391743122,-0.744726091887889
-9.68695,0.77572,-0.745516,-0.023536,-0.036859,-0.003428,0.490693,-0.590109,-0.03079,2.32865700470161,1.48141589183611,-0.745519221189944
-9.70228,0.790848,-0.760102,-0.038421,-0.031345,-0.006957,0.490693,-0.590109,-0.03079,2.32800969753539,1.48146072930672,-0.746076050564167
-9.686978,0.775693,-0.737926,-0.048385,-0.033148,-0.006368,0.490693,-0.590109,-0.03079,2.32728898188283,1.48150753899772,-0.746681574583389
-9.694468,0.752782,-0.722874,-0.055173,-0.03468,-0.007696,0.493256,-0.592811,-0.03069,2.32654489629133,1.48155935777944,-0.747293538862111
-9.694515,0.745073,-0.692617,-0.063919,-0.031122,-0.010262,0.493256,-0.592811,-0.03069,2.32584257639356,1.48159374073667,-0.747843578911278
-9.686962,0.737399,-0.654961,-0.06314,-0.028857,-0.004119,0.493256,-0.592811,-0.03069,2.32512727125711,1.48162899635778,-0.748406621652389
-9.664124,0.729876,-0.625277,-0.058654,-0.026683,-0.005047,0.493256,-0.592811,-0.03069,2.32448479864883,1.48166217503883,-0.748907809977055
-9.687405,0.759942,-0.586322,-0.052382,-0.025735,0.00207,0.493298,-0.587393,-0.027952,2.32374074796389,1.48168072787311,-0.749526738113611
-9.687156,0.737204,-0.601825,-0.042944,-0.030351,-0.00793,0.493298,-0.587393,-0.027952,2.323060663542,1.48170936870194,-0.750124669957
-9.664457,0.75253,-0.587002,-0.033181,-0.030089,-0.003065,0.493298,-0.587393,-0.027952,2.32237310911722,1.48174465922961,-0.750735045987444
-9.641296,0.730006,-0.610669,-0.031587,-0.032014,-0.003727,0.493298,-0.587393,-0.027952,2.32166225456661,1.48178441779639,-0.751372823664
-9.672001,0.752552,-0.609584,-0.021237,-0.031463,-0.00143,0.49356,-0.587147,-0.080451,2.32094406963933,1.48181897528639,-0.752043919647833
-9.694812,0.737115,-0.594043,-0.013903,-0.030607,-0.004615,0.49356,-0.587147,-0.080451,2.32026552110589,1.48184192634667,-0.752693129221333
-9.687414,0.767596,-0.601397,-0.000278,-0.029748,0.000271,0.49356,-0.587147,-0.080451,2.31960152860611,1.48187037518944,-0.753362427517555
-9.687405,0.759942,-0.586322,0.007657,-0.033675,-0.004897,0.49356,-0.587147,-0.080451,2.31897481630767,1.48191493340761,-0.754014220176167
-9.679796,0.752323,-0.563848,0.021039,-0.03088,0.003549,0.497576,-0.59206,-0.012033,2.31827733096783,1.48193922837028,-0.754770645235056
-9.710557,0.774813,-0.547581,0.031991,-0.030349,0.003916,0.497576,-0.59206,-0.012033,2.31755932057333,1.48194552900356,-0.755713541113722
-9.687562,0.77511,-0.578518,0.045075,-0.033692,-0.001228,0.497576,-0.59206,-0.012033,2.316954355059,1.48198326299011,-0.756437415809556
-9.68723,0.752455,-0.616793,0.047797,-0.030808,0.005571,0.497576,-0.59206,-0.012033,2.31628561526767,1.48200357860544,-0.757232168266444
-9.679849,0.798243,-0.654296,0.051407,-0.029866,0.008815,0.487897,-0.589933,-0.028329,2.31558326046333,1.48201630204494,-0.758069716160444
-9.694902,0.79066,-0.691976,0.045206,-0.024439,0.00499,0.487897,-0.589933,-0.028329,2.31499456140389,1.48201085662228,-0.7587808499635
-9.687062,0.775609,-0.715153,0.040293,-0.022517,0.00113,0.487897,-0.589933,-0.028329,2.31456222626006,1.48202516831006,-0.759319423209167
-9.679305,0.760476,-0.715558,0.031629,-0.027504,0.002333,0.487897,-0.589933,-0.028329,2.31398204440017,1.48204567591144,-0.759984654891667
-9.679314,0.768129,-0.730633,0.022265,-0.029011,0.000997,0.497746,-0.594461,-0.064591,2.31337233159428,1.48207117515028,-0.7606560650345
-9.69469,0.775548,-0.714962,0.009166,-0.030438,0.005446,0.497746,-0.594461,-0.064591,2.31256044001861,1.48207489269844,-0.761497051224222
-9.663864,0.74546,-0.731335,0.00417,-0.022827,-0.002217,0.497746,-0.594461,-0.064591,2.31209410588967,1.48209578427194,-0.761979075849889
-9.663984,0.753002,-0.716047,-0.007125,-0.023998,-0.003555,0.497746,-0.594461,-0.064591,2.31160040502117,1.48212109152472,-0.762460227811667
-9.687025,0.767984,-0.707669,-0.010308,-0.025861,-0.001975,0.490771,-0.595158,-0.083407,2.31102980501078,1.48214662567011,-0.763010599473111
-9.671778,0.775761,-0.723126,-0.018957,-0.020363,-0.000013,0.490771,-0.595158,-0.083407,2.31045979841183,1.4821432571875,-0.7635381597005
-9.702161,0.760318,-0.722576,-0.026789,-0.025725,-0.004926,0.490771,-0.595158,-0.083407,2.30990626770711,1.48217395750311,-0.764030010521556
-9.641422,0.791177,-0.716085,-0.032876,-0.021207,-0.003611,0.490771,-0.595158,-0.083407,2.30940626620533,1.48219456982417,-0.764452868535556
-9.68684,0.752844,-0.723065,-0.043786,-0.022362,-0.002051,0.498614,-0.595689,-0.033051,2.308825176775,1.48221423966822,-0.764929744444278
-9.702438,0.783028,-0.699482,-0.054736,-0.017813,-0.002357,0.498614,-0.595689,-0.033051,2.30826175006178,1.48221094099872,-0.765324555040889
-9.679712,0.775394,-0.639435,-0.057904,-0.017444,-0.000111,0.498614,-0.595689,-0.033051,2.30771083734872,1.48221870770733,-0.765735684452222
-9.671955,0.76026,-0.63984,-0.056224,-0.012989,0.003161,0.498614,-0.595689,-0.033051,2.30719509299039,1.48221291321911,-0.766115747029111
-9.679454,0.745003,-0.639863,-0.060906,-0.015547,-0.004931,0.482801,-0.586808,-0.078467,2.30676722588567,1.48222636969628,-0.766395802324333
-9.694996,0.775242,-0.631463,-0.060527,-0.010768,-0.0023,0.482801,-0.586808,-0.078467,2.30633651389667,1.48221097590528,-0.766679208648889
-9.709994,0.744727,-0.631509,-0.056874,-0.011399,0.002856,0.482801,-0.586808,-0.078467,2.30585820681917,1.48220303466389,-0.767020018804055
-9.702578,0.759902,-0.608713,-0.053473,-0.013386,-0.003592,0.482801,-0.586808,-0.078467,2.30546863220589,1.48221036504056,-0.767280316988833
-9.718055,0.782543,-0.60042,-0.055543,-0.009808,0.004812,0.493235,-0.592319,-0.077949,2.3049900807825,1.48219608825933,-0.767624722519222
-9.702476,0.767666,-0.654151,-0.050801,-0.007662,0.000986,0.493235,-0.592319,-0.077949,2.30458697987894,1.48216936729106,-0.767904812721
-9.672001,0.752552,-0.609584,-0.042926,-0.007365,0.007774,0.493235,-0.592319,-0.077949,2.30413553339594,1.48214547375378,-0.768253668837222
-9.687543,0.782791,-0.601183,-0.039099,-0.008368,0.006169,0.493235,-0.592319,-0.077949,2.303703128439,1.48212624024167,-0.768593047823611
-9.710354,0.767354,-0.585643,-0.028476,-0.010059,0.006187,0.490721,-0.592387,-0.080728,2.303261735044,1.48210978180072,-0.7689680838565
-9.694996,0.775242,-0.631463,-0.02481,-0.011002,0.011983,0.490721,-0.592387,-0.080728,2.30264790326456,1.48206815573322,-0.769524965590555
-9.679657,0.752462,-0.601802,-0.017217,-0.009534,0.005906,0.490721,-0.592387,-0.080728,2.30225134734017,1.48205131332017,-0.769883263930056
-9.687341,0.752345,-0.586429,-0.013206,-0.010473,0.012671,0.490721,-0.592387,-0.080728,2.30171848131633,1.48202342298228,-0.770388483961889
-9.695236,0.790327,-0.600885,-0.007832,-0.007067,0.008221,0.495959,-0.595635,-0.03321,2.30135395215667,1.4819981157295,-0.770738177835444
-9.687367,0.775304,-0.631654,-0.004965,-0.011869,0.006889,0.495959,-0.595635,-0.03321,2.3008673722255,1.48196746777372,-0.771184981746556
-9.67224,0.790624,-0.631822,0.002383,-0.01196,0.004338,0.495959,-0.595635,-0.03321,2.30049916042422,1.48195751940539,-0.771563997126778
-9.687608,0.790389,-0.601076,0.00484,-0.009168,-0.001095,0.495959,-0.595635,-0.03321,2.30029720854706,1.48195305136628,-0.771782285271944
-9.679878,0.775227,-0.59389,0.009325,-0.009853,-0.002054,0.490467,-0.600822,-0.033647,2.30011007450272,1.48195149802456,-0.771996943135333
-9.672223,0.775317,-0.601672,0.011907,-0.007335,-0.001697,0.490467,-0.600822,-0.033647,2.29992194562156,1.48192922764211,-0.772194043001278
-9.657106,0.775302,-0.5641,0.018884,-0.014107,-0.006577,0.490467,-0.600822,-0.033647,2.29975427198194,1.48194319026433,-0.772413168903778
-9.695347,0.790216,-0.570522,0.029506,-0.014212,-0.006539,0.490467,-0.600822,-0.033647,2.29961017772061,1.48195724015294,-0.772635244410222
-9.664615,0.744711,-0.526382,0.041404,-0.013377,-0.007137,0.493305,-0.595581,-0.03337,2.29952446467344,1.48197102824239,-0.772828609274722
-9.672363,0.752191,-0.510903,0.058436,-0.015139,-0.008386,0.493305,-0.595581,-0.03337,2.29941415995789,1.48197425709878,-0.7730625181035
-9.672419,0.752135,-0.495721,0.073167,-0.013086,-0.011855,0.493305,-0.595581,-0.03337,2.29950207211806,1.48199633549517,-0.773161268749167
-9.664782,0.744544,-0.480837,0.096421,-0.0136,-0.008241,0.493305,-0.595581,-0.03337,2.29956977338256,1.48201254959022,-0.773338681317778
-9.695256,0.759658,-0.525405,0.115769,-0.014412,-0.006573,0.488314,-0.582113,-0.030772,2.29963761427328,1.48202700090422,-0.773564526732222
-9.664919,0.767393,-0.495698,0.127224,-0.014568,-0.012654,0.488314,-0.582113,-0.030772,2.29979134274394,1.482037228525,-0.773718115576667
-9.695698,0.805189,-0.509581,0.141723,-0.015341,-0.011966,0.488314,-0.582113,-0.030772,2.30000552936883,1.48206328626872,-0.773862174931444
-9.687544,0.759804,-0.548368,0.159755,-0.016466,-0.011598,0.488314,-0.582113,-0.030772,2.3002343418405,1.48209053083533,-0.774036812428889
-9.657133,0.775275,-0.556509,0.170349,-0.016894,-0.012856,0.492973,-0.592565,-0.025451,2.30050423932806,1.48212084717883,-0.774196771719722
-9.687608,0.790389,-0.601076,0.184175,-0.019894,-0.013484,0.492973,-0.592565,-0.025451,2.30070580723311,1.48214140714006,-0.774485064962055
-9.679638,0.760143,-0.624468,0.186127,-0.017048,-0.012482,0.492973,-0.592565,-0.025451,2.30100500877406,1.48217126969833,-0.774655216967111
-9.656948,0.783122,-0.62472,0.18642,-0.023411,-0.013839,0.492973,-0.592565,-0.025451,2.30119701228289,1.48221429202806,-0.774933701467333
-9.687302,0.790694,-0.684576,0.186342,-0.0209,-0.017351,0.49339,-0.584746,-0.027893,2.30150743628144,1.48225967055028,-0.775093119706555
-9.709872,0.760173,-0.699612,0.181269,-0.01892,-0.013806,0.49339,-0.584746,-0.027893,2.30172724286178,1.48227934039433,-0.775320274116833
-9.649143,0.798685,-0.708196,0.17192,-0.015021,-0.01444,0.49339,-0.584746,-0.027893,2.30207035684961,1.48230948220506,-0.775410682095722
-9.656734,0.790997,-0.700521,0.171926,-0.020417,-0.014177,0.49339,-0.584746,-0.027893,2.30229538196,1.48234815866861,-0.775619650190556
-9.663901,0.753085,-0.738819,0.158903,-0.012724,-0.020899,0.492973,-0.592565,-0.025451,2.30277595796361,1.48238648606661,-0.775539365112778
-9.694634,0.775603,-0.730144,0.143158,-0.014151,-0.019678,0.492973,-0.592565,-0.025451,2.30311230007967,1.48240907060806,-0.775570554120167
-9.694597,0.767978,-0.72266,0.132493,-0.015968,-0.021665,0.492973,-0.592565,-0.025451,2.3034736352895,1.48245423969094,-0.775543710978945
-9.671649,0.760566,-0.72334,0.123718,-0.017818,-0.02558,0.492973,-0.592565,-0.025451,2.30384837461667,1.48250977602083,-0.775481402777278
-9.702363,0.790764,-0.73733,0.117944,-0.019026,-0.024644,0.482539,-0.587054,-0.025968,2.30416584973944,1.48256559160317,-0.7754620645455
-9.686987,0.783346,-0.753,0.110498,-0.014206,-0.026549,0.482539,-0.587054,-0.025968,2.30454985675711,1.48260103921033,-0.775354883966667
-9.671778,0.775761,-0.723126,0.092578,-0.014311,-0.021783,0.482539,-0.587054,-0.025968,2.30484921537756,1.48264366011467,-0.775290097399555
-9.679498,0.783269,-0.715237,0.082515,-0.014244,-0.025678,0.482539,-0.587054,-0.025968,2.30519885689128,1.48269338450306,-0.775149563606889
-9.679461,0.775644,-0.707753,0.069506,-0.015436,-0.031852,0.487805,-0.59258,-0.028389,2.30560839805433,1.48275654791533,-0.774916230736278
-9.702263,0.752554,-0.677138,0.064106,-0.01123,-0.028605,0.487805,-0.59258,-0.028389,2.30597840754322,1.48279087851272,-0.774686493240889
-9.686961,0.760386,-0.707776,0.056743,-0.01432,-0.026733,0.487805,-0.59258,-0.028389,2.30628291488061,1.48284266238789,-0.774526568856611
-9.664336,0.767976,-0.655106,0.050629,-0.011717,-0.026725,0.487805,-0.59258,-0.028389,2.30662698879872,1.48289008294361,-0.774311596834222
-9.67189,0.752663,-0.639947,0.051525,-0.006988,-0.02989,0.490686,-0.581921,-0.025373,2.30713339565344,1.48293539165272,-0.773935915030056
-9.671117,0.661489,-0.641231,0.05156,-0.010151,-0.028319,0.490686,-0.581921,-0.025373,2.30749099586183,1.48296731369778,-0.773700679752167
-9.709755,0.706655,-0.609271,0.059951,-0.009273,-0.027311,0.490686,-0.581921,-0.025373,2.30792193474344,1.48301167992989,-0.773421898546222
-9.687,0.722037,-0.60963,0.064737,-0.008698,-0.02922,0.490686,-0.581921,-0.025373,2.30841380301778,1.48305859434056,-0.773093986363333
-9.709929,0.73713,-0.631616,0.075087,-0.010688,-0.026952,0.493023,-0.595336,-0.02813,2.30884671411978,1.48310465354061,-0.772851211269444
-9.717751,0.759861,-0.631104,0.078698,-0.009745,-0.023709,0.493023,-0.595336,-0.02813,2.30919309187056,1.48312739516156,-0.772679907348056
-9.702301,0.737192,-0.631807,0.082966,-0.017377,-0.019917,0.493023,-0.595336,-0.02813,2.30937074878506,1.48317167412728,-0.772713138388944
-9.671974,0.752579,-0.617175,0.092015,-0.013322,-0.018233,0.493023,-0.595336,-0.02813,2.30962420528494,1.48320603963122,-0.772693014759667
-9.686981,0.729718,-0.632295,0.095044,-0.01469,-0.02693,0.490623,-0.586847,-0.07537,2.310023379201,1.48325874853011,-0.772534189931889
-9.686787,0.706924,-0.632616,0.094177,-0.008613,-0.022361,0.490623,-0.586847,-0.07537,2.31040810180306,1.48327702211194,-0.772387233333
-9.694783,0.76013,-0.654449,0.09321,-0.014321,-0.022424,0.490623,-0.586847,-0.07537,2.31072445991606,1.48332079493261,-0.772306948255222
-9.694893,0.783007,-0.676901,0.092747,-0.018178,-0.028905,0.490623,-0.586847,-0.07537,2.31108329930717,1.48338303332117,-0.772182855450222
-9.686971,0.745052,-0.670036,0.093153,-0.015293,-0.025011,0.488081,-0.584638,-0.028211,2.31142929308583,1.48343321149478,-0.772072690360889
-9.686953,0.729745,-0.639886,0.095064,-0.016589,-0.025985,0.488081,-0.584638,-0.028211,2.31171753396833,1.48347171342556,-0.771988321216111
-9.725158,0.737034,-0.638825,0.100194,-0.015695,-0.026921,0.488081,-0.584638,-0.028211,2.31210998837244,1.48352609783911,-0.771849183685667
-9.702449,0.744706,-0.608927,0.104679,-0.023683,-0.02796,0.488081,-0.584638,-0.028211,2.31236560907878,1.48359585859039,-0.771858643362222
-9.709699,0.706711,-0.624453,0.107989,-0.020508,-0.023731,0.487989,-0.587285,-0.02827,2.31261494660511,1.4836524770235,-0.771882728885556
-9.694563,0.714377,-0.609546,0.117184,-0.027315,-0.030213,0.487989,-0.587285,-0.02827,2.31281482154222,1.48371689707178,-0.771943448838945
-9.68711,0.744913,-0.632082,0.123572,-0.027077,-0.032441,0.487989,-0.587285,-0.02827,2.31313336131494,1.48380065535183,-0.771937165658944
-9.679546,0.752573,-0.632166,0.131045,-0.027758,-0.029205,0.487989,-0.587285,-0.02827,2.31339369440628,1.4838796139805,-0.772008060873278
-9.717695,0.759916,-0.646286,0.129218,-0.034692,-0.024455,0.487149,-0.594737,-0.017968,2.31341072880539,1.48396153966639,-0.772318607044778
-9.687173,0.775498,-0.68479,0.123032,-0.029258,-0.027637,0.487149,-0.594737,-0.017968,2.31353738724222,1.4840242842,-0.772543230729778
-9.671715,0.745176,-0.670418,0.113998,-0.030765,-0.028652,0.487149,-0.594737,-0.017968,2.313680818279,1.48410729198911,-0.772688686346778
-9.679416,0.760365,-0.685194,0.099456,-0.023024,-0.031191,0.487149,-0.594737,-0.017968,2.31400146989833,1.48418190475161,-0.772619763352833
-9.717666,0.782932,-0.706691,0.099792,-0.022072,-0.030533,0.492783,-0.589672,-0.020152,2.3143306561705,1.48425367262983,-0.772543126010111
-9.702457,0.775347,-0.676817,0.088254,-0.023846,-0.028338,0.492783,-0.589672,-0.020152,2.31449819018389,1.48430865045483,-0.772610408395944
-9.671751,0.752801,-0.677902,0.085084,-0.016493,-0.026018,0.492783,-0.589672,-0.020152,2.31482135507522,1.48436266834956,-0.772502896204833
-9.671918,0.752635,-0.632356,0.083377,-0.023496,-0.030607,0.492783,-0.589672,-0.020152,2.31508151363378,1.48443698440633,-0.772454358639333
-9.671779,0.752774,-0.670311,0.078289,-0.01898,-0.027678,0.490644,-0.587339,-0.028111,2.31536786956228,1.48449828031789,-0.772366778091444
-9.671917,0.775622,-0.685171,0.074706,-0.019278,-0.029624,0.490644,-0.587339,-0.028111,2.31562233835228,1.48454805706611,-0.772253977557167
-9.679378,0.775727,-0.730526,0.062536,-0.016281,-0.026734,0.490644,-0.587339,-0.028111,2.31590865937422,1.48460303489111,-0.772126865335111
-9.664251,0.791046,-0.730694,0.04479,-0.014219,-0.028703,0.490644,-0.587339,-0.028111,2.31623341251383,1.48465811743578,-0.771916658057556
-9.694568,0.790993,-0.783066,0.030632,-0.015353,-0.028441,0.482306,-0.589579,-0.023408,2.316493797965,1.4847146486025,-0.771735527940778
-9.687208,0.806112,-0.745089,0.015106,-0.007607,-0.031949,0.482306,-0.589579,-0.023408,2.31689600875139,1.48474875230728,-0.771364261815889
-9.686693,0.745329,-0.745944,0.002278,-0.013499,-0.029806,0.482306,-0.589579,-0.023408,2.31715246721506,1.48480462024944,-0.771115936579667
-9.671603,0.745287,-0.700781,-0.002892,-0.016948,-0.030827,0.482306,-0.589579,-0.023408,2.31734298719528,1.48486821999367,-0.770920826387389
-9.702319,0.752498,-0.661956,-0.014473,-0.02001,-0.030576,0.49831,-0.594951,-0.07507,2.31743458199706,1.48493654957617,-0.770795913278333
-9.671715,0.745176,-0.670418,-0.016768,-0.017778,-0.032493,0.49831,-0.594951,-0.07507,2.31755268832778,1.48498887450294,-0.770638205460333
-9.702134,0.737358,-0.677352,-0.019281,-0.021227,-0.02964,0.49831,-0.594951,-0.07507,2.31758815338822,1.485057553151,-0.770557588770278
-9.671678,0.73755,-0.662934,-0.022262,-0.022496,-0.033529,0.49831,-0.594951,-0.07507,2.31766604736694,1.48513551694283,-0.770426916079556
-9.709883,0.744838,-0.661872,-0.024746,-0.027523,-0.029405,0.486895,-0.596769,-0.062666,2.31754877879356,1.48521445811822,-0.770485873251889
-9.702209,0.729622,-0.639504,-0.024864,-0.023752,-0.034838,0.486895,-0.596769,-0.062666,2.31756588300578,1.485281234359,-0.770409235909167
-9.694701,0.737226,-0.624407,-0.024871,-0.026612,-0.035191,0.486895,-0.596769,-0.062666,2.3175823589,1.48536923378556,-0.770333663216389
-9.671836,0.729731,-0.602314,-0.02734,-0.026231,-0.030368,0.486895,-0.596769,-0.062666,2.31750516305239,1.485447738629,-0.770345880510833
-9.671937,0.744954,-0.609691,-0.027977,-0.023047,-0.030013,0.495769,-0.592742,-0.027911,2.31748760505494,1.48552018718506,-0.770296679720778
-9.694619,0.714322,-0.594364,-0.019999,-0.018386,-0.033154,0.495769,-0.592742,-0.027911,2.31759708946644,1.48557493811744,-0.770094134432167
-9.671846,0.714396,-0.564574,-0.013525,-0.018752,-0.031527,0.495769,-0.592742,-0.027911,2.31773826903039,1.48564286627456,-0.7699218705805
-9.710087,0.72931,-0.570996,-0.012644,-0.023239,-0.035434,0.495769,-0.592742,-0.027911,2.317863217046,1.48572557735794,-0.76976808975
-9.725197,0.698684,-0.540679,0.001171,-0.017984,-0.036618,0.479743,-0.586878,-0.023508,2.31815971332889,1.48580153402283,-0.769476811997167
-9.694721,0.706557,-0.548926,0.01248,-0.009502,-0.034556,0.479743,-0.586878,-0.023508,2.31857220409589,1.48584363132883,-0.769094253601555
-9.710014,0.714059,-0.556028,0.027608,-0.016001,-0.034575,0.479743,-0.586878,-0.023508,2.31893774554567,1.48591244960311,-0.7688000087915
-9.679188,0.683971,-0.572401,0.035753,-0.016678,-0.030052,0.479743,-0.586878,-0.023508,2.31921907493017,1.48597412948678,-0.768610727994
-9.694776,0.729489,-0.586559,0.050882,-0.018414,-0.030017,0.49332,-0.581483,-0.072473,2.31950047412778,1.48603868916128,-0.768459338262556
-9.694499,0.706779,-0.609653,0.05641,-0.016225,-0.0274,0.49332,-0.581483,-0.072473,2.31973630281711,1.48607909349933,-0.768367080236222
-9.694396,0.714543,-0.655091,0.059361,-0.024491,-0.024905,0.49332,-0.581483,-0.072473,2.31980580176922,1.48614463055739,-0.768449616786833
-9.701821,0.707022,-0.692961,0.055833,-0.021913,-0.024245,0.49332,-0.581483,-0.072473,2.31990889828106,1.48620458256656,-0.768489602246222
-9.671328,0.699589,-0.67106,0.048844,-0.019905,-0.020063,0.491625,-0.58001,-0.041033,2.31995391028444,1.48625345174433,-0.768570323655944
-9.709827,0.744894,-0.677054,0.045316,-0.025902,-0.019493,0.491625,-0.58001,-0.041033,2.31978888954306,1.48629633444783,-0.768703317632611
-9.679435,0.752684,-0.662529,0.037241,-0.023926,-0.020788,0.491625,-0.58001,-0.041033,2.3197323060165,1.48635337175961,-0.768856889023778
-9.694524,0.752727,-0.707692,0.030339,-0.025182,-0.027263,0.491625,-0.58001,-0.041033,2.31976143553711,1.48642440660017,-0.768907119557222
-9.655832,0.684629,-0.702019,0.018486,-0.023458,-0.024714,0.492529,-0.591705,-0.06485,2.31974691441,1.48648783181161,-0.768971399979278
-9.694074,0.676555,-0.655626,0.008123,-0.027827,-0.027692,0.492529,-0.591705,-0.06485,2.31961751580856,1.48654851685844,-0.7691245350385
-9.678994,0.684165,-0.625537,-0.007692,-0.027687,-0.029675,0.492529,-0.591705,-0.06485,2.31954560830411,1.48662822597806,-0.769180734592944
-9.694471,0.706807,-0.617244,-0.020532,-0.027869,-0.028109,0.492529,-0.591705,-0.06485,2.3194058948155,1.48670538691911,-0.769272783179945
-9.724752,0.699128,-0.662132,-0.027706,-0.029105,-0.032331,0.485038,-0.594681,-0.075866,2.31930642858544,1.48679237405556,-0.769306415646222
-9.702236,0.752581,-0.684729,-0.034739,-0.020127,-0.030002,0.485038,-0.594681,-0.075866,2.31928339025878,1.48684419283728,-0.769245276814167
-9.663874,0.730125,-0.693595,-0.039092,-0.020144,-0.037746,0.485038,-0.594681,-0.075866,2.31946012214956,1.486925856724,-0.768973180213611
-9.65679,0.790942,-0.685339,-0.035754,-0.019815,-0.032256,0.485038,-0.594681,-0.075866,2.31954157659694,1.48699689156456,-0.768805105148611
-9.6879,0.87438,-0.713762,-0.039267,-0.022632,-0.031006,0.487848,-0.587162,-0.02565,2.31952761397472,1.48707043967711,-0.768723929953667
-9.688296,0.904633,-0.67538,-0.039099,-0.023005,-0.03809,0.487848,-0.587162,-0.02565,2.31959477418761,1.487141998116,-0.768550165120111
-9.679665,0.783103,-0.669692,-0.040924,-0.01755,-0.033214,0.487848,-0.587162,-0.02565,2.319732777255,1.48721092110994,-0.768312346757111
-9.694396,0.714543,-0.655091,-0.044807,-0.013392,-0.034149,0.487848,-0.587162,-0.02565,2.31997134610894,1.48727450340089,-0.767963892066278
-9.725185,0.737006,-0.631234,-0.045542,-0.015324,-0.038355,0.48513,-0.592034,-0.075807,2.32025187264267,1.48734904635028,-0.767571455115444
-9.70233,0.714176,-0.571401,-0.043503,-0.015303,-0.033521,0.48513,-0.592034,-0.075807,2.32038509351194,1.48739906744439,-0.767331524905833
-9.709793,0.691293,-0.56394,-0.034426,-0.01124,-0.030549,0.48513,-0.592034,-0.075807,2.32062458738961,1.48745236975472,-0.767008168028444
-9.717421,0.691231,-0.563749,-0.022748,-0.018625,-0.026405,0.48513,-0.592034,-0.075807,2.32064724174417,1.4875106637025,-0.7669317052185
-9.694482,0.668485,-0.526688,-0.007861,-0.012387,-0.022747,0.487615,-0.589687,-0.02309,2.32076925760911,1.48755162654544,-0.766792899300333
-9.701926,0.653283,-0.541893,0.005237,-0.021124,-0.027306,0.487615,-0.589687,-0.02309,2.32077103784344,1.48760018156422,-0.7668217495685
-9.694537,0.691417,-0.564322,0.00842,-0.01958,-0.028887,0.487615,-0.589687,-0.02309,2.32090165817433,1.48766463651906,-0.766715127494556
-9.717365,0.691287,-0.578931,0.015662,-0.026898,-0.021537,0.487615,-0.589687,-0.02309,2.32073937759756,1.48772811409033,-0.766920604933833
-9.709618,0.660819,-0.541595,0.013627,-0.021834,-0.026319,0.493277,-0.586901,-0.075211,2.32078102111833,1.48779171383456,-0.766916346334056
-9.717358,0.660646,-0.511041,0.007539,-0.028433,-0.025123,0.493277,-0.586901,-0.075211,2.32058245517706,1.48784880350617,-0.767137392097111
-9.656223,0.638265,-0.490117,-0.002097,-0.033092,-0.024245,0.493277,-0.586901,-0.075211,2.32029412702817,1.48792779704139,-0.767424812675555
-9.701725,0.599849,-0.474324,-0.002774,-0.024526,-0.025763,0.493277,-0.586901,-0.075211,2.32022363323922,1.48799495725428,-0.767491920528611
-9.717239,0.630116,-0.473515,-0.006217,-0.029222,-0.021316,0.487502,-0.591843,-0.070408,2.31994945969861,1.48806197784094,-0.767754784345222
-9.701826,0.615072,-0.481701,-0.000256,-0.030287,-0.028392,0.487502,-0.591843,-0.070408,2.31975626936689,1.48812823048339,-0.767950889374333
-9.701725,0.599849,-0.474324,0.003082,-0.032499,-0.022933,0.487502,-0.591843,-0.070408,2.3194652708665,1.48820378572289,-0.768253965542944
-9.6861,0.569693,-0.505497,0.008254,-0.027143,-0.021893,0.487502,-0.591843,-0.070408,2.31928391385711,1.48826831049083,-0.768460001487111
-9.678665,0.592548,-0.505367,0.007246,-0.021749,-0.023769,0.490312,-0.584323,-0.020192,2.31925787356667,1.48832709313039,-0.768507631482167
-9.693738,0.554297,-0.467566,-0.008037,-0.02769,-0.030968,0.490312,-0.584323,-0.020192,2.31915612095722,1.48839357266544,-0.768625772719444
-9.663013,0.539432,-0.491316,-0.008787,-0.027402,-0.035799,0.490312,-0.584323,-0.020192,2.31921233796494,1.48848401555089,-0.768550671265167
-9.709353,0.599787,-0.474133,-0.01516,-0.021286,-0.032851,0.490312,-0.584323,-0.020192,2.319327826304,1.48855864576667,-0.768400101837778
-9.694602,0.676027,-0.5114,-0.021907,-0.023439,-0.032251,0.498,-0.592428,-0.019893,2.31936639804789,1.48863584161428,-0.768309798578555
-9.71792,0.71372,-0.479929,-0.026434,-0.019592,-0.033187,0.498,-0.592428,-0.019893,2.31944443165283,1.48869265203344,-0.768199773115444
-9.695109,0.729156,-0.495469,-0.026728,-0.021484,-0.031921,0.498,-0.592428,-0.019893,2.31950790922411,1.48876592089356,-0.768072381640944
-9.710568,0.759479,-0.509841,-0.027022,-0.020837,-0.030625,0.498,-0.592428,-0.019893,2.31955840155672,1.48883569909811,-0.767957277274
-9.702636,0.713871,-0.487901,-0.023425,-0.021804,-0.028051,0.488265,-0.579343,-0.028093,2.31954309503211,1.48890240552578,-0.767917239454778
-9.702516,0.706329,-0.50319,-0.030744,-0.022021,-0.024215,0.488265,-0.579343,-0.028093,2.31936735797817,1.48894720808983,-0.767978448099944
-9.702673,0.721497,-0.495385,-0.037589,-0.027701,-0.028163,0.488265,-0.579343,-0.028093,2.31918704816544,1.48902415959156,-0.768068419746889
-9.694878,0.721725,-0.541121,-0.040445,-0.027024,-0.026234,0.488265,-0.579343,-0.028093,2.31897441488228,1.48909641616156,-0.768183663740056
-9.710181,0.713892,-0.510483,-0.039079,-0.024469,-0.02266,0.487333,-0.589442,-0.01785,2.31874785388344,1.48915778188622,-0.768316291197889
-9.702294,0.706551,-0.563917,-0.026884,-0.032222,-0.024314,0.487333,-0.589442,-0.01785,2.31835798256444,1.48921981083544,-0.768694433914222
-9.717493,0.72947,-0.631532,-0.017523,-0.033575,-0.023009,0.487333,-0.589442,-0.01785,2.31798748438378,1.4892972859355,-0.7690255749535
-9.648804,0.722402,-0.625766,-0.009734,-0.027591,-0.020023,0.487333,-0.589442,-0.01785,2.31770821448606,1.48935910544539,-0.769284721221944
-9.686705,0.68402,-0.602574,-0.005276,-0.028923,-0.022276,0.495869,-0.567809,-0.061538,2.31745659058033,1.48942731285494,-0.7695272868765
-9.6788,0.661372,-0.625858,-0.003695,-0.02355,-0.023501,0.495869,-0.567809,-0.061538,2.31729897002872,1.48947326733533,-0.769679060580055
-9.694341,0.714599,-0.670273,-0.009897,-0.026063,-0.02741,0.495869,-0.567809,-0.061538,2.31720658982944,1.48954603005039,-0.769750269953389
-9.66393,0.73007,-0.678413,-0.004725,-0.025151,-0.026418,0.495869,-0.567809,-0.061538,2.31712686325656,1.48961544173611,-0.769821758579167
-9.65655,0.775857,-0.715917,-0.010584,-0.025753,-0.02934,0.496094,-0.58757,-0.030413,2.31707979176639,1.48969122386822,-0.769845791742667
-9.664629,0.82898,-0.714977,-0.002067,-0.020702,-0.022492,0.496094,-0.58757,-0.030413,2.31696658980672,1.489730668276,-0.769900420502111
-9.695279,0.851581,-0.729074,0.007813,-0.020834,-0.026965,0.496094,-0.58757,-0.030413,2.31702690833472,1.48979374442189,-0.769862843595056
-9.702593,0.821183,-0.744493,0.007961,-0.019831,-0.020194,0.496094,-0.58757,-0.030413,2.31696871910661,1.48984268341278,-0.769944524935056
-9.702558,0.79057,-0.684194,0.007641,-0.020144,-0.020199,0.48813,-0.587408,-0.03089,2.3169026759035,1.48989216345528,-0.770033274852556
-9.702347,0.75247,-0.654365,-0.000232,-0.02012,-0.026988,0.48813,-0.587408,-0.03089,2.31690140181422,1.48993883352006,-0.769987425091833
-9.717705,0.744582,-0.608545,-0.006276,-0.01686,-0.023752,0.48813,-0.587408,-0.03089,2.31694931106172,1.48998927349283,-0.769926966937611
-9.687121,0.706591,-0.541526,-0.008988,-0.016765,-0.015393,0.48813,-0.587408,-0.03089,2.31681741664156,1.49002419750167,-0.770040099084167
-9.718075,0.751875,-0.524939,-0.014587,-0.022791,-0.021269,0.49291,-0.597491,-0.075448,2.31665784132283,1.49008013525694,-0.770166932053778
-9.702599,0.706246,-0.480418,-0.02103,-0.019553,-0.02158,0.49291,-0.597491,-0.075448,2.31650575346028,1.49011575739689,-0.770269662046778
-9.74869,0.743863,-0.478737,-0.016432,-0.019885,-0.017379,0.49291,-0.597491,-0.075448,2.31632561818033,1.49015960003067,-0.770412534578667
-9.725557,0.721311,-0.494812,-0.016868,-0.026907,-0.02261,0.49291,-0.597491,-0.075448,2.31609430988994,1.49022498000922,-0.770605620190722
-9.801799,0.736053,-0.538234,-0.014888,-0.026278,-0.020339,0.48722,-0.591597,-0.065168,2.31583418623794,1.49028510655117,-0.770832582614944
-9.80177,0.759069,-0.59864,-0.006514,-0.03144,-0.020044,0.48722,-0.591597,-0.065168,2.31541438254755,1.49033805979594,-0.771240326090389
-9.771293,0.789929,-0.659703,-0.002045,-0.029273,-0.021616,0.48722,-0.591597,-0.065168,2.31514406618133,1.49040560398094,-0.771509717432889
-9.725451,0.798038,-0.698696,0.001439,-0.024244,-0.024127,0.48722,-0.591597,-0.065168,2.31504973121494,1.49046923863172,-0.771611312962833
-9.717739,0.798183,-0.721659,0.008598,-0.023651,-0.020556,0.498466,-0.587378,-0.025014,2.31491151870822,1.49052529855994,-0.771774867628889
-9.725091,0.775411,-0.744562,0.012165,-0.03098,-0.019337,0.498466,-0.587378,-0.025014,2.31453213680917,1.49057612250483,-0.772184670591111
-9.72534,0.798149,-0.729059,0.010914,-0.024286,-0.017657,0.498466,-0.587378,-0.025014,2.31432353523317,1.49062792383328,-0.772424653160556
-9.717555,0.783043,-0.737055,0.008262,-0.017619,-0.021135,0.498466,-0.587378,-0.025014,2.31433412937278,1.49067483824394,-0.772438092184444
-9.71001,0.783021,-0.714473,0.003736,-0.012501,-0.022061,0.492804,-0.583763,-0.064672,2.31447028239272,1.49071478879678,-0.772314208818778
-9.710508,0.828497,-0.683468,0.01114,-0.014794,-0.022058,0.492804,-0.583763,-0.064672,2.31451616706,1.49074318527972,-0.772299024467111
-9.710684,0.835984,-0.652998,0.004409,-0.012813,-0.020771,0.492804,-0.583763,-0.064672,2.31461980462344,1.49078130323839,-0.772209436792278
-9.710795,0.835873,-0.622634,0.000324,-0.013373,-0.016284,0.492804,-0.583763,-0.064672,2.314605702375,1.49081209082039,-0.772227745280667
-9.672721,0.820793,-0.570667,-0.001585,-0.013978,-0.015333,0.493206,-0.590041,-0.028011,2.31455283639661,1.490842162818,-0.772280140020555
-9.679842,0.767602,-0.586406,-0.007801,-0.018718,-0.019916,0.493206,-0.590041,-0.028011,2.31441474606283,1.49087333437211,-0.772375522183611
-9.725601,0.759577,-0.570186,-0.020067,-0.019566,-0.021574,0.493206,-0.590041,-0.028011,2.31431901483422,1.49092435030306,-0.772424565894167
-9.732933,0.744486,-0.615754,-0.03484,-0.015284,-0.019968,0.493206,-0.590041,-0.028011,2.31425077251811,1.4909651560665,-0.772408980117111
-9.725286,0.752229,-0.638611,-0.042188,-0.016781,-0.017434,0.477414,-0.581651,-0.026168,2.31407604775428,1.49100383253006,-0.772481795192
-9.709874,0.737185,-0.646797,-0.050565,-0.016067,-0.017778,0.477414,-0.581651,-0.026168,2.31384737490883,1.49102652179117,-0.7725834256285
-9.694884,0.775353,-0.661826,-0.060201,-0.009297,-0.016769,0.477414,-0.581651,-0.026168,2.313785747385,1.49105130544561,-0.772497607861667
-9.733115,0.805601,-0.705989,-0.05825,-0.014075,-0.015846,0.477414,-0.581651,-0.026168,2.31359932892506,1.49108247699972,-0.772541851920833
-9.732571,0.767834,-0.76725,-0.065438,-0.010234,-0.02066,0.501353,-0.584908,-0.027416,2.31358534884956,1.49111602219961,-0.772395087308
-9.747891,0.775308,-0.766761,-0.058293,-0.012822,-0.017765,0.501353,-0.584908,-0.027416,2.31341097315128,1.4911332311315,-0.772406641377889
-9.74803,0.775169,-0.728807,-0.060188,-0.007391,-0.016102,0.501353,-0.584908,-0.027416,2.31337920818572,1.49115358165339,-0.772290908692944
-9.725073,0.760104,-0.714412,-0.063371,-0.006394,-0.014494,0.501353,-0.584908,-0.027416,2.31332845405394,1.49116927215011,-0.772186223932833
-9.717574,0.775362,-0.714389,-0.060257,-0.00265,-0.019271,0.482151,-0.597152,-0.073464,2.31347314172672,1.49118744101228,-0.771893270665333
-9.763758,0.797561,-0.652196,-0.059863,0.001499,-0.016001,0.482151,-0.597152,-0.073464,2.31358889186494,1.49117709121856,-0.771629935610222
-9.786485,0.782208,-0.659428,-0.053103,0.000162,-0.015993,0.482151,-0.597152,-0.073464,2.3137469487485,1.49118445650178,-0.771341537648222
-9.840398,0.819569,-0.604421,-0.048602,-0.000203,-0.016298,0.482151,-0.597152,-0.073464,2.31391434313567,1.49119300860789,-0.7710550420935
-9.847899,0.781324,-0.551629,-0.034788,-0.001933,-0.017559,0.498544,-0.592427,-0.077631,2.31410317014794,1.49120677924406,-0.770781706310222
-9.832634,0.773794,-0.536936,-0.026614,-0.01054,-0.011832,0.498544,-0.592427,-0.077631,2.31393553141489,1.49120913543656,-0.770886042004778
-9.824997,0.766203,-0.522052,-0.011612,-0.015811,-0.017635,0.498544,-0.592427,-0.077631,2.31386355409733,1.49124652035756,-0.770932450270389
-9.817148,0.7435,-0.530155,-0.004137,-0.008871,-0.014316,0.498544,-0.592427,-0.077631,2.313900101261,1.49126608548194,-0.770888747262833
-9.809187,0.720907,-0.568621,0.002621,-0.013066,-0.014341,0.496044,-0.5848,-0.027734,2.31385716619767,1.49129277154367,-0.770941717960889
-9.900751,0.720136,-0.558739,0.015791,-0.01416,-0.015591,0.496044,-0.5848,-0.027734,2.31379065175606,1.4913082176945,-0.771033016056944
-9.969376,0.719606,-0.564611,0.018142,-0.017962,-0.011114,0.496044,-0.5848,-0.027734,2.31360470453461,1.49133724249544,-0.771268373507778
-10.022808,0.726798,-0.570758,0.027708,-0.017138,-0.015254,0.496044,-0.5848,-0.027734,2.31354955217683,1.49137249811656,-0.7713965329265
-9.992039,0.696655,-0.57195,0.034481,-0.018149,-0.014602,0.487615,-0.589687,-0.02309,2.31347396203078,1.491408277336,-0.771562164532611
-9.999823,0.711761,-0.563954,0.045104,-0.016664,-0.014548,0.487615,-0.589687,-0.02309,2.31340240359189,1.49142588769328,-0.771777817232833
-9.969496,0.727148,-0.549322,0.053838,-0.022448,-0.012651,0.487615,-0.589687,-0.02309,2.31323397946133,1.49146533210106,-0.772085134547944
-9.938578,0.689491,-0.573394,0.064033,-0.015279,-0.017371,0.487615,-0.589687,-0.02309,2.31335737413522,1.49150133821311,-0.772125259633556
-9.930793,0.674385,-0.581389,0.063536,-0.015857,-0.01062,0.487919,-0.584023,-0.07285,2.3133225199395,1.49152589497494,-0.772322900551111
-9.915335,0.644062,-0.567017,0.054348,-0.0171,-0.018715,0.487919,-0.584023,-0.07285,2.31335131784783,1.49155202253178,-0.772433222719944
-9.91504,0.606046,-0.559961,0.044439,-0.02206,-0.015585,0.487919,-0.584023,-0.07285,2.31323033172628,1.49159621423111,-0.772669365568278
-9.892019,0.583383,-0.545673,0.029184,-0.01878,-0.021397,0.487919,-0.584023,-0.07285,2.31327103277006,1.49164555464739,-0.772705057521333
-9.869217,0.606473,-0.576289,0.012438,-0.009728,-0.021677,0.504036,-0.58724,-0.077195,2.31348612696539,1.49168011213739,-0.772523822684889
-9.877729,0.697473,-0.544451,-0.011802,-0.013022,-0.026297,0.504036,-0.58724,-0.077195,2.31360610079683,1.49171334317828,-0.772376778819611
-9.839414,0.690296,-0.575876,-0.025889,-0.01508,-0.022829,0.504036,-0.58724,-0.077195,2.313625840454,1.49175907076606,-0.772295394185333
-9.839515,0.705519,-0.583253,-0.03591,-0.016269,-0.024807,0.504036,-0.58724,-0.077195,2.31363516050433,1.49181043576256,-0.772199313891167
-9.847243,0.743668,-0.643254,-0.043588,-0.013003,-0.022541,0.498416,-0.584608,-0.022335,2.31365294539439,1.49185211418989,-0.772075500338611
-9.809075,0.744005,-0.651799,-0.05062,-0.0072,-0.02025,0.498416,-0.584608,-0.022335,2.31368338391083,1.49186431403106,-0.771941790777556
-9.816785,0.766848,-0.681651,-0.051314,-0.012611,-0.022564,0.498416,-0.584608,-0.022335,2.31369158695139,1.49190536414039,-0.771808203389444
-9.778939,0.805174,-0.689661,-0.051063,-0.007555,-0.025728,0.498416,-0.584608,-0.022335,2.31388599901256,1.49194369153839,-0.771488476793833
-9.824596,0.804913,-0.718879,-0.04625,-0.013009,-0.026413,0.490347,-0.594789,-0.075548,2.31398026416583,1.49199250835633,-0.771281254026778
-9.808917,0.751825,-0.712419,-0.041393,-0.014633,-0.02513,0.490347,-0.594789,-0.075548,2.31396439913633,1.49202629790211,-0.771196291470555
-9.793632,0.774964,-0.773207,-0.032304,-0.012471,-0.021534,0.490347,-0.594789,-0.075548,2.3140017316975,1.49206521871156,-0.771081152197056
-9.801554,0.812919,-0.780072,-0.017489,-0.005943,-0.021089,0.490347,-0.594789,-0.075548,2.314218972646,1.49209227129211,-0.770822704059722
-9.82419,0.767008,-0.742187,-0.010771,-0.013963,-0.023086,0.491477,-0.595771,-0.096507,2.31430887447983,1.49213656771111,-0.770708856328778
-9.808852,0.744227,-0.712526,0.004072,-0.013457,-0.021422,0.491477,-0.595771,-0.096507,2.314355003493,1.49216154335161,-0.770675712554278
-9.785719,0.721675,-0.728601,0.006612,-0.009365,-0.022981,0.491477,-0.595771,-0.096507,2.31459369451989,1.49219784616939,-0.770456202679667
-9.762983,0.729376,-0.706295,0.003716,-0.004254,-0.022936,0.491477,-0.595771,-0.096507,2.31494377236555,1.49222542234828,-0.770117678903889
-9.755374,0.721757,-0.68382,0.002666,-0.010942,-0.026876,0.490036,-0.592266,-0.02037,2.3152200402995,1.49227156881472,-0.769850573940778
-9.770686,0.721577,-0.668256,-0.003135,-0.011524,-0.027223,0.490036,-0.592266,-0.02037,2.31542106715294,1.49230373520567,-0.769692831216222
-9.762845,0.706527,-0.691434,-0.007607,-0.00861,-0.025598,0.490036,-0.592266,-0.02037,2.31569915022778,1.49234356358556,-0.769398150074222
-9.786153,0.759553,-0.697703,-0.009245,-0.008606,-0.026887,0.490036,-0.592266,-0.02037,2.3160013537325,1.49238574815794,-0.769075177168944
-9.771015,0.790207,-0.735611,-0.017838,-0.003724,-0.022356,0.495932,-0.586955,-0.075052,2.316298705226,1.49241133466317,-0.768735501476833
-9.763516,0.805464,-0.735588,-0.012079,-0.004427,-0.023953,0.495932,-0.586955,-0.075052,2.31657148250439,1.49242557653783,-0.768434519701555
-9.756099,0.843626,-0.765608,-0.003704,-0.011175,-0.023676,0.495932,-0.586955,-0.075052,2.31675882598806,1.4924662077685,-0.768240666145278
-9.7789,0.843524,-0.787808,0.004399,-0.008059,-0.021038,0.495932,-0.586955,-0.075052,2.31698245483622,1.49249669864478,-0.768030720666889
-9.770995,0.820875,-0.811092,0.009856,-0.0078,-0.021662,0.498092,-0.58978,-0.019833,2.31723947180478,1.49252788765217,-0.767800948264944
-9.747521,0.768016,-0.850368,0.024368,-0.010788,-0.020362,0.498092,-0.58978,-0.019833,2.31737937727944,1.492546161234,-0.767764697807
-9.739976,0.767994,-0.827786,0.028154,-0.013074,-0.023916,0.498092,-0.58978,-0.019833,2.31760782323228,1.49259044019972,-0.767609485807722
-9.739948,0.768022,-0.835377,0.022739,-0.00411,-0.021261,0.498092,-0.58978,-0.019833,2.31797526708933,1.49261461298944,-0.767301278375444
-9.73173,0.715038,-0.874271,0.02406,-0.006016,-0.019671,0.490644,-0.587339,-0.028111,2.31826710334706,1.49263909993817,-0.767072239011166
-9.731859,0.730234,-0.874057,0.01686,-0.001543,-0.025118,0.490644,-0.587339,-0.028111,2.31870528533894,1.49265060164822,-0.766638996296889
-9.739183,0.70749,-0.904551,0.017152,-0.003463,-0.026427,0.490644,-0.587339,-0.028111,2.31918675145972,1.49268309965144,-0.766202420006555
-9.74742,0.752792,-0.842991,0.01008,0.000738,-0.026079,0.490644,-0.587339,-0.028111,2.31974164352011,1.49270781349278,-0.765674423447222
-9.755168,0.760273,-0.827511,0.002005,-0.001417,-0.027417,0.506641,-0.584524,-0.074357,2.32025541565806,1.49273861852806,-0.765167458087611
-9.755591,0.813485,-0.834353,0.001599,0.00586,-0.031199,0.506641,-0.584524,-0.074357,2.32096415836206,1.49274839236361,-0.764463497581722
-9.732773,0.798281,-0.782004,0.000747,0.005912,-0.026053,0.506641,-0.584524,-0.074357,2.321617102937,1.49276415267344,-0.763813764409889
-9.725633,0.859153,-0.78893,0.004791,0.005187,-0.032483,0.506641,-0.584524,-0.074357,2.3224039141525,1.49279286331539,-0.7630399035265
-9.733362,0.874314,-0.796116,0.004882,0.000772,-0.028345,0.49632,-0.576857,-0.027557,2.32299791900839,1.4928215215975,-0.762459686760055
-9.717996,0.851561,-0.774046,0.009453,0.008374,-0.025351,0.49632,-0.576857,-0.027557,2.32365629155272,1.49281628561417,-0.7617829533675
-9.75595,0.859099,-0.841302,0.011977,0.0042,-0.027639,0.49632,-0.576857,-0.027557,2.32433321693133,1.49283771823928,-0.761137339169222
-9.75618,0.889518,-0.848465,0.010136,-0.001149,-0.023518,0.49632,-0.576857,-0.027557,2.32479075460828,1.49286077401922,-0.760707150778556
-9.748165,0.843993,-0.849298,0.01684,0.008611,-0.025966,0.495953,-0.587447,-0.027793,2.32554670842867,1.49287156014489,-0.7599944461805
-9.80134,0.820794,-0.855873,0.017434,0.000963,-0.0283,0.495953,-0.587447,-0.027793,2.32611797166361,1.49288417886472,-0.759434771922
-9.793787,0.81312,-0.818217,0.006268,0.006189,-0.023774,0.495953,-0.587447,-0.027793,2.32674327024656,1.49289505225678,-0.758826612457833
-9.785652,0.760053,-0.834338,0.003685,0.009705,-0.024069,0.495953,-0.587447,-0.027793,2.32745066904817,1.49290039295978,-0.758129633263056
-9.793123,0.744823,-0.841952,-0.003229,0.009398,-0.031178,0.49579,-0.586832,-0.072432,2.32829020661583,1.49291915523339,-0.757282765318722
-9.846537,0.759696,-0.870765,-0.012438,0.010482,-0.025399,0.49579,-0.586832,-0.072432,2.32894699091189,1.49290987008961,-0.756595717039
-9.823902,0.782619,-0.855835,-0.00878,0.004341,-0.03479,0.49579,-0.586832,-0.072432,2.32973518093633,1.49294378180833,-0.755786443455
-9.862154,0.782199,-0.824517,-0.010576,0.012344,-0.02859,0.49579,-0.586832,-0.072432,2.33056869712317,1.49295261316689,-0.75492721859
-9.831568,0.767196,-0.810313,-0.009897,0.010447,-0.027001,0.506203,-0.598253,-0.027394,2.33132491274272,1.492961793591,-0.754147214152833
-9.800918,0.744595,-0.796216,-0.015466,0.013961,-0.031491,0.506203,-0.598253,-0.027394,2.33218862310011,1.49295743027156,-0.753217495498889
-9.793438,0.752171,-0.773528,-0.027047,0.015029,-0.031196,0.506203,-0.598253,-0.027394,2.33310132480822,1.492966191817,-0.7522375463115
-9.762999,0.76767,-0.789259,-0.038887,0.017075,-0.027995,0.506203,-0.598253,-0.027394,2.33396109072483,1.49296554604572,-0.751280967063055
-9.747899,0.805949,-0.834651,-0.045074,0.020603,-0.031196,0.495769,-0.592742,-0.027911,2.3349580219515,1.49296453375561,-0.750171305115222
-9.717469,0.829101,-0.865457,-0.051822,0.015275,-0.030635,0.495769,-0.592742,-0.027911,2.335742319895,1.49295606891589,-0.749231498466722
-9.71769,0.851867,-0.857546,-0.054844,0.022246,-0.036362,0.495769,-0.592742,-0.027911,2.33686741054039,1.49296133980578,-0.747968788726055
-9.717938,0.897592,-0.894858,-0.04966,0.019984,-0.034758,0.495769,-0.592742,-0.027911,2.33791773134378,1.49296755317267,-0.746794078411944
-9.71802,0.920496,-0.924901,-0.044664,0.019678,-0.027017,0.50117,-0.590203,-0.027534,2.33880123371817,1.49296027515583,-0.745799206672056
-9.687222,0.890381,-0.933683,-0.042096,0.021557,-0.027313,0.50117,-0.590203,-0.027534,2.33968026805344,1.49293458393094,-0.744791471866444
-9.702672,0.91305,-0.93298,-0.03551,0.023133,-0.020511,0.50117,-0.590203,-0.027534,2.34052048629894,1.49290946866422,-0.743862974941944
-9.664117,0.867801,-0.942168,-0.038022,0.02604,-0.017595,0.50117,-0.590203,-0.027534,2.34135559073406,1.49287402105706,-0.742933291194556
-9.618202,0.83767,-0.913378,-0.038799,0.024097,-0.023739,0.491399,-0.590723,-0.04389,2.34228049228333,1.49285290259094,-0.74191161122
-9.62548,0.799647,-0.921313,-0.038763,0.032366,-0.02204,0.491399,-0.590723,-0.04389,2.34329016440278,1.49279900686917,-0.740658919660778
-9.633256,0.8071,-0.898242,-0.043003,0.036198,-0.024587,0.491399,-0.590723,-0.04389,2.34449878643561,1.49275811383933,-0.739342087305722
-9.671775,0.821736,-0.828756,-0.035241,0.033912,-0.022973,0.491399,-0.590723,-0.04389,2.34563721138522,1.49271819819306,-0.738115121877944
-9.656197,0.783871,-0.829673,-0.033204,0.02885,-0.018195,0.503923,-0.595797,-0.032733,2.34655724347,1.49267852689267,-0.737112308896667
-9.64892,0.798907,-0.768923,-0.031621,0.034226,-0.019418,0.503923,-0.595797,-0.032733,2.34756749154761,1.49261592198528,-0.735976467032167
-9.649078,0.791087,-0.708303,-0.024972,0.032853,-0.024561,0.503923,-0.595797,-0.032733,2.34873925225778,1.49258042201828,-0.734741787255611
-9.633997,0.821685,-0.731029,-0.022419,0.029962,-0.025549,0.503923,-0.595797,-0.032733,2.349872877556,1.49255162410994,-0.733551770416889
-9.657221,0.874795,-0.760071,-0.018752,0.028382,-0.019756,0.503803,-0.589765,-0.074634,2.35084914410178,1.4925152165725,-0.732528798899778
-9.688001,0.889604,-0.721139,-0.013195,0.02677,-0.015889,0.503803,-0.589765,-0.074634,2.35165389728683,1.49245889484511,-0.731691338272167
-9.657332,0.874684,-0.729708,-0.013371,0.028298,-0.023924,0.503803,-0.589765,-0.074634,2.35273315562478,1.49242988749744,-0.730578534734333
-9.680253,0.882123,-0.736619,-0.016498,0.033759,-0.019688,0.503803,-0.589765,-0.074634,2.35383185691417,1.49238363631133,-0.729438381910222
-9.656797,0.821583,-0.753229,-0.025477,0.027507,-0.018181,0.503309,-0.592536,-0.019574,2.35473218424833,1.49234565797889,-0.728474681724444
-9.633525,0.799169,-0.807259,-0.03065,0.028185,-0.01916,0.503309,-0.592536,-0.019574,2.35559655783028,1.49229212877594,-0.727593011944222
-9.633386,0.799308,-0.845213,-0.04475,0.034376,-0.016243,0.503309,-0.592536,-0.019574,2.3565573956785,1.4922384424935,-0.726520298585444
-9.641153,0.799107,-0.807068,-0.055085,0.035417,-0.017875,0.503309,-0.592536,-0.019574,2.35755102823567,1.49218573359461,-0.725388750227278
-9.618426,0.814461,-0.799836,-0.063244,0.044031,-0.02296,0.495995,-0.582029,-0.025055,2.35882984735172,1.49212661934278,-0.7239506699515
-9.633866,0.829477,-0.784058,-0.062467,0.038355,-0.016901,0.495995,-0.582029,-0.025055,2.35978326755689,1.49205092447706,-0.722845318963278
-9.626184,0.806607,-0.746616,-0.063003,0.043163,-0.012022,0.495995,-0.582029,-0.025055,2.3607932014755,1.49197386825567,-0.721677555053722
-9.641422,0.791177,-0.716085,-0.065256,0.040009,-0.012064,0.495995,-0.582029,-0.025055,2.36172621879894,1.49190239708317,-0.720581297223222
-9.618171,0.738095,-0.694634,-0.060883,0.040556,-0.018163,0.50657,-0.587663,-0.027157,2.36281762461822,1.49184057757328,-0.719337105410278
-9.618191,0.707426,-0.619153,-0.064322,0.046661,-0.013602,0.50657,-0.587663,-0.027157,2.36386736946344,1.49174402604061,-0.718111483884889
-9.65682,0.744939,-0.572118,-0.06507,0.041866,-0.018482,0.50657,-0.587663,-0.027157,2.36498024281439,1.49168021685706,-0.716835230400667
-9.626235,0.729936,-0.557914,-0.055693,0.044968,-0.016487,0.50657,-0.587663,-0.027157,2.366138145622,1.49160726215594,-0.715537317398722
-9.649128,0.737403,-0.572416,-0.053125,0.041128,-0.016841,0.506599,-0.589941,-0.077095,2.36722366968667,1.49154167273806,-0.714318467745111
-9.641997,0.782941,-0.541602,-0.043104,0.037554,-0.014912,0.506599,-0.589941,-0.077095,2.36814623249672,1.49146323770772,-0.713287746972667
-9.642099,0.798164,-0.548979,-0.029333,0.037396,-0.018086,0.506599,-0.589941,-0.077095,2.36923353679572,1.49140630511561,-0.712126754934889
-9.641785,0.767828,-0.564589,-0.020572,0.03416,-0.014874,0.506599,-0.589941,-0.077095,2.37019798747244,1.49134947724317,-0.711110974168222
-9.641757,0.767856,-0.572179,-0.006374,0.037211,-0.013183,0.511837,-0.593189,-0.029577,2.37122507796311,1.49128414962444,-0.710067948834945
-9.657096,0.790637,-0.60184,-0.001932,0.030792,-0.016134,0.511837,-0.593189,-0.029577,2.37212147830978,1.491219781936,-0.709130987070722
-9.649689,0.813464,-0.594119,0.008761,0.031985,-0.012865,0.511837,-0.593189,-0.029577,2.37306215762217,1.49116314604961,-0.708212578140778
-9.61142,0.798578,-0.595288,0.014031,0.031026,-0.007388,0.511837,-0.593189,-0.029577,2.37387048872917,1.49109863873494,-0.707440183332722
-9.603837,0.813919,-0.618037,0.021048,0.02776,-0.010297,0.498635,-0.589779,-0.077572,2.37468969322822,1.49104502226561,-0.706674473130056
-9.565246,0.761044,-0.619741,0.020726,0.024906,-0.010334,0.498635,-0.589779,-0.077572,2.37538030197661,1.49098081165667,-0.706036451107611
-9.59573,0.760824,-0.626568,0.019376,0.03347,-0.013141,0.498635,-0.589779,-0.077572,2.37638077621867,1.49092173231139,-0.705084671510556
-9.60322,0.737914,-0.611516,0.014492,0.030956,-0.015761,0.498635,-0.589779,-0.077572,2.37737234928906,1.49087164140417,-0.704129575790722
-9.595556,0.73035,-0.604223,0.006773,0.027223,-0.015507,0.511823,-0.600885,-0.082253,2.37825717811256,1.49082778131711,-0.703262217698278
-9.580209,0.699916,-0.559488,0.000757,0.032082,-0.010969,0.511823,-0.600885,-0.082253,2.37906203601728,1.49075151049322,-0.702459489093444
-9.580329,0.707459,-0.544199,-0.010551,0.035352,-0.012902,0.511823,-0.600885,-0.082253,2.38001735862972,1.49068834708094,-0.701477951657778
-9.542347,0.699949,-0.484534,-0.01871,0.028408,-0.018158,0.511823,-0.600885,-0.082253,2.38092028650228,1.49064672101344,-0.700528493346667
-9.496615,0.707946,-0.493164,-0.029948,0.033293,-0.016857,0.49584,-0.589603,-0.075111,2.38186944810767,1.49059394230144,-0.699504457179611
-9.48906,0.723259,-0.508322,-0.046365,0.029323,-0.016956,0.49584,-0.589603,-0.075111,2.38262651893783,1.49053278601611,-0.698631479131722
-9.496614,0.730933,-0.545979,-0.050866,0.027779,-0.016666,0.49584,-0.589603,-0.075111,2.38339877411967,1.49048953679378,-0.697732460793389
-9.496659,0.746212,-0.568537,-0.052664,0.031337,-0.010516,0.49584,-0.589603,-0.075111,2.38410278698539,1.49042921826578,-0.696897391264833
-9.481089,0.738988,-0.637344,-0.052358,0.031646,-0.011157,0.507467,-0.59117,-0.045556,2.38482742962544,1.49036938842956,-0.696042372639778
-9.481171,0.761892,-0.667386,-0.054382,0.033537,-0.015327,0.507467,-0.59117,-0.045556,2.38560401322017,1.49029837104228,-0.694924594917778
-9.458111,0.754591,-0.698429,-0.052277,0.023735,-0.007381,0.507467,-0.59117,-0.045556,2.38607327949978,1.4902463602745,-0.694325964943278
-9.465656,0.754612,-0.721011,-0.047861,0.034774,-0.01143,0.507467,-0.59117,-0.045556,2.38687824212417,1.490181172282,-0.693401621898889
-9.480875,0.746863,-0.713145,-0.048113,0.030672,-0.008256,0.50717,-0.59862,-0.092992,2.38752280912578,1.49011795650989,-0.692637552304333
-9.47308,0.747091,-0.758881,-0.049667,0.037376,-0.005613,0.50717,-0.59862,-0.092992,2.38817641692528,1.49002231254767,-0.691860026232611
-9.480727,0.739349,-0.736025,-0.042046,0.038217,-0.010407,0.50717,-0.59862,-0.092992,2.38904122683917,1.48994892151461,-0.690890217399611
-9.488374,0.731606,-0.713168,-0.038491,0.029931,-0.009842,0.50717,-0.59862,-0.092992,2.38972605855261,1.48988963273,-0.690109881350167
-9.473459,0.762037,-0.69035,-0.027882,0.033318,-0.010412,0.508992,-0.590242,-0.024437,2.39052039213083,1.48982509050878,-0.689246293165722
-9.488863,0.769428,-0.667088,-0.019847,0.033553,-0.011025,0.508992,-0.590242,-0.024437,2.39128463625817,1.48974536393589,-0.688456916318389
-9.465611,0.716346,-0.645637,-0.006907,0.038216,-0.008036,0.508992,-0.590242,-0.024437,2.39217772048206,1.48966769684978,-0.687546850055222
-9.503964,0.731149,-0.621696,0.000727,0.032074,-0.01226,0.508992,-0.590242,-0.024437,2.39305480005022,1.48960840806517,-0.686671969600055
-9.480951,0.716139,-0.622483,0.005982,0.030157,-0.007436,0.520309,-0.582884,-0.031483,2.393795133187,1.48954435453572,-0.6859474840395
-9.473314,0.708548,-0.607599,0.011657,0.028155,-0.012912,0.520309,-0.582884,-0.031483,2.394558539557,1.48947785754739,-0.685151492399889
-9.457846,0.693559,-0.630968,0.012678,0.028165,-0.010335,0.520309,-0.582884,-0.031483,2.39533704301228,1.48942230376422,-0.684405486947833
-9.480463,0.655329,-0.615748,0.012371,0.028172,-0.009693,0.520309,-0.582884,-0.031483,2.39609943709217,1.48936559806472,-0.683674875286778
-9.510881,0.670499,-0.675497,0.00421,0.028525,-0.014865,0.512614,-0.590663,-0.089876,2.39696414228639,1.48931695577956,-0.682821130751
-9.480645,0.716444,-0.705982,-0.000934,0.031754,-0.014525,0.512614,-0.590663,-0.089876,2.39780484922367,1.48924613037833,-0.681978050167944
-9.480903,0.746835,-0.705554,-0.013376,0.030644,-0.009427,0.512614,-0.590663,-0.089876,2.39854472857522,1.48918427596189,-0.681205428467278
-9.496361,0.777158,-0.719926,-0.007903,0.035671,-0.009351,0.512614,-0.590663,-0.089876,2.39939920614867,1.48911297932217,-0.680331542848944
-9.496417,0.777103,-0.704745,-0.008253,0.035347,-0.010644,0.511971,-0.585124,-0.02678,2.400273720085,1.48904440539378,-0.679436695844
-9.48081,0.739265,-0.713252,-0.009233,0.031859,-0.011332,0.511971,-0.585124,-0.02678,2.40101784058306,1.48896782041089,-0.678659082505889
-9.503612,0.716175,-0.682637,-0.011073,0.027146,-0.007204,0.511971,-0.585124,-0.02678,2.401636541827,1.48890847926644,-0.678013782466611
-9.488006,0.678338,-0.691145,-0.01264,0.032258,-0.005224,0.511971,-0.585124,-0.02678,2.40231074449428,1.48883630996283,-0.677308896937
-9.556926,0.692837,-0.651258,-0.016536,0.037362,-0.006786,0.501353,-0.584908,-0.027416,2.40311359527206,1.48875731642761,-0.676465153129389
-9.534117,0.685287,-0.613983,-0.02494,0.036797,-0.008432,0.501353,-0.584908,-0.027416,2.40384883205172,1.48866654192989,-0.675656664942889
-9.541755,0.669891,-0.576052,-0.025317,0.036782,-0.011009,0.501353,-0.584908,-0.027416,2.40470955789861,1.48859559435572,-0.674732793137
-9.549466,0.669745,-0.553089,-0.026911,0.036167,-0.010376,0.501353,-0.584908,-0.027416,2.40553806499472,1.48852466423483,-0.673837265454222
-9.587902,0.684465,-0.506375,-0.019422,0.033901,-0.00651,0.506902,-0.590679,-0.035076,2.40625085685917,1.48845139537472,-0.673076581795556
-9.595779,0.707141,-0.490681,-0.01973,0.031686,-0.00589,0.506902,-0.590679,-0.035076,2.40682915376506,1.48836592667344,-0.672373144888
-9.573024,0.722522,-0.49104,-0.015973,0.028755,-0.010738,0.506902,-0.590679,-0.035076,2.40753868186656,1.48830920352067,-0.671624399271333
-9.580358,0.684443,-0.483793,-0.015665,0.029382,-0.011376,0.506902,-0.590679,-0.035076,2.40827494838961,1.48825234074167,-0.670849595910944
-9.549191,0.624048,-0.523367,-0.013441,0.025223,-0.012706,0.509557,-0.590733,-0.034917,2.40896161269722,1.48820539142444,-0.670130136894389
-9.526002,0.601551,-0.554624,-0.025079,0.027859,-0.014973,0.509557,-0.590733,-0.034917,2.4096486958835,1.48814207093267,-0.669313218774722
-9.494872,0.548781,-0.601682,-0.047606,0.028397,-0.014726,0.509557,-0.590733,-0.034917,2.41035749094733,1.48809250362378,-0.668485863594944
-9.517875,0.579125,-0.638636,-0.078629,0.03151,-0.020267,0.509557,-0.590733,-0.034917,2.41117482794567,1.48804632225078,-0.667471723436389
-9.525798,0.61708,-0.645501,-0.109152,0.037223,-0.01773,0.510016,-0.577495,-0.034621,2.41197259981961,1.48798521832528,-0.666400650685722
-9.503668,0.71612,-0.667455,-0.124954,0.034508,-0.019097,0.510016,-0.577495,-0.034621,2.41263187993439,1.48791619061167,-0.6653650429955
-9.519229,0.738678,-0.636389,-0.135918,0.03937,-0.020045,0.510016,-0.577495,-0.034621,2.41345494160783,1.48785480743372,-0.664201450419333
-9.504452,0.791959,-0.628431,-0.136498,0.046704,-0.017067,0.510016,-0.577495,-0.034621,2.41435471043711,1.48777467943544,-0.662959405359556
-9.481818,0.791895,-0.560686,-0.140352,0.040395,-0.016828,0.517407,-0.59305,-0.081758,2.41511165909433,1.48770586116117,-0.661851000047722
-9.520208,0.791335,-0.491414,-0.140287,0.044228,-0.013886,0.517407,-0.59305,-0.081758,2.41580502546061,1.48760953652111,-0.660806002494055
-9.52029,0.81424,-0.521457,-0.138734,0.042287,-0.016476,0.517407,-0.59305,-0.081758,2.41659230791461,1.48753645964706,-0.659671207826222
-9.535539,0.783475,-0.453185,-0.132203,0.042575,-0.012266,0.517407,-0.59305,-0.081758,2.417305536111,1.48745579059717,-0.658627100389722
-9.543139,0.783441,-0.460585,-0.130391,0.044419,-0.017712,0.501501,-0.593218,-0.035453,2.41818017222028,1.48738061932978,-0.657425564387667
-9.52769,0.760771,-0.461288,-0.120371,0.036399,-0.015837,0.501501,-0.593218,-0.035453,2.41880232921322,1.48730214939289,-0.656457762681611
-9.550804,0.791004,-0.467878,-0.110393,0.034396,-0.015822,0.501501,-0.593218,-0.035453,2.41948332120555,1.48724251154272,-0.655500677288111
-9.558044,0.768343,-0.521144,-0.098729,0.031451,-0.012275,0.501501,-0.593218,-0.035453,2.42005482878639,1.48718248972044,-0.654682746878333
-9.611569,0.783105,-0.519593,-0.088609,0.032988,-0.005782,0.512493,-0.591032,-0.039998,2.42053549205639,1.48710881943494,-0.653981352004278
-9.626695,0.790773,-0.57224,-0.070719,0.026414,-0.011909,0.512493,-0.591032,-0.039998,2.42099051646133,1.48704261915233,-0.653269397897167
-9.634323,0.790711,-0.572049,-0.058081,0.025051,-0.008018,0.512493,-0.591032,-0.039998,2.42143974637806,1.48698750170111,-0.652676126078944
-9.618605,0.752985,-0.61092,-0.043254,0.020151,-0.007059,0.512493,-0.591032,-0.039998,2.42180783600639,1.486939993879,-0.6522014667365
-9.618679,0.768236,-0.625888,-0.025277,0.0225,-0.009225,0.514887,-0.584931,-0.079119,2.42231481881928,1.486891613393,-0.651632507334222
-9.603201,0.745595,-0.634182,-0.014354,0.026198,-0.010115,0.514887,-0.584931,-0.079119,2.4228659933315,1.48682244605317,-0.651046042294333
-9.626463,0.783342,-0.617892,-0.004003,0.030244,-0.00778,0.514887,-0.584931,-0.079119,2.42354365174778,1.48675706607461,-0.650359186000667
-9.618485,0.745443,-0.626209,-0.000448,0.031485,-0.007112,0.514887,-0.584931,-0.079119,2.42423843182956,1.48668821289378,-0.649664074306611
-9.641343,0.722297,-0.580412,0.004067,0.030174,-0.006789,0.519659,-0.593228,-0.02648,2.42491059246333,1.48662126212022,-0.649002961597667
-9.679871,0.744587,-0.526001,-0.006295,0.030886,-0.00971,0.519659,-0.593228,-0.02648,2.42556090159333,1.48654232094483,-0.648369494880722
-9.702904,0.728928,-0.449733,-0.012941,0.030356,-0.004586,0.519659,-0.593228,-0.02648,2.42614274151461,1.48647133846411,-0.647756378685667
-9.710772,0.743951,-0.418965,-0.020015,0.03011,-0.004289,0.519659,-0.593228,-0.02648,2.42669450943828,1.48640030362356,-0.647155689224389
-9.718383,0.728582,-0.388625,-0.02769,0.028932,-0.002075,0.501593,-0.590571,-0.035394,2.42715391461594,1.48632783761422,-0.646628390796167
-9.756533,0.712938,-0.34993,-0.026409,0.025105,-0.002433,0.501593,-0.590571,-0.035394,2.42747257656161,1.48624812849461,-0.646206562525556
-9.76442,0.72028,-0.296496,-0.023553,0.020618,-0.004403,0.501593,-0.590571,-0.035394,2.42783214899039,1.48619515779656,-0.645789848065333
-9.771809,0.682146,-0.274067,-0.026092,0.024784,-0.002757,0.501593,-0.590571,-0.035394,2.42822854783528,1.48613159295889,-0.645329814569667
-9.741279,0.667087,-0.244681,-0.025482,0.024132,-0.004374,0.50681,-0.593326,-0.035135,2.42864927654939,1.48607188529561,-0.644846864920278
-9.771661,0.674631,-0.296947,-0.020313,0.019641,-0.003438,0.50681,-0.593326,-0.035135,2.42889740979956,1.48600418403111,-0.644516456918667
-9.771301,0.652004,-0.342813,-0.021966,0.016465,-0.005412,0.50681,-0.593326,-0.035135,2.42920151571156,1.48596065555633,-0.644159380308611
-9.778863,0.667332,-0.395544,-0.019211,0.015116,-0.011855,0.50681,-0.593326,-0.035135,2.42962959225561,1.48593019958661,-0.643684790779278
-9.755609,0.660225,-0.479723,-0.013055,0.014753,-0.009909,0.51207,-0.590664,-0.032138,2.43002248299167,1.48589723034489,-0.643260955381722
-9.732384,0.630103,-0.503496,-0.004365,0.015622,-0.009873,0.51207,-0.590664,-0.032138,2.43037523118883,1.48584755831633,-0.642886617479944
-9.747896,0.683358,-0.555501,-0.006277,0.015328,-0.008914,0.51207,-0.590664,-0.032138,2.43077323573528,1.48581184891,-0.642474667764555
-9.763097,0.68329,-0.570301,-0.009573,0.014378,-0.012476,0.51207,-0.590664,-0.032138,2.431223722288,1.48578374913278,-0.642001771203167
-9.770826,0.698451,-0.577487,-0.010168,0.014401,-0.010223,0.522688,-0.59088,-0.031502,2.43162273912456,1.48575189690083,-0.641579035362111
-9.755782,0.713687,-0.554883,-0.019488,0.020531,-0.009543,0.522688,-0.59088,-0.031502,2.43202234937256,1.48569236377033,-0.641118914600055
-9.725353,0.713852,-0.532874,-0.025317,0.018989,-0.011191,0.522688,-0.59088,-0.031502,2.43249179018494,1.4856533556945,-0.640587479745
-9.748773,0.74378,-0.455964,-0.029856,0.02061,-0.012795,0.522688,-0.59088,-0.031502,2.43301596447644,1.48561387638017,-0.639989739887667
-9.687677,0.706037,-0.389709,-0.030665,0.024806,-0.005674,0.512183,-0.582107,-0.076599,2.43345915555906,1.48555479703489,-0.639471220458167
-9.710949,0.72845,-0.335679,-0.039698,0.024886,-0.006667,0.512183,-0.582107,-0.076599,2.43382476682194,1.48548224375917,-0.639007294881556
-9.703378,0.705469,-0.267874,-0.041005,0.022671,-0.007662,0.512183,-0.582107,-0.076599,2.43424437852628,1.48543042497744,-0.638486506525944
-9.695981,0.712962,-0.222413,-0.05227,0.021511,-0.007713,0.512183,-0.582107,-0.076599,2.43461438801517,1.48538089257511,-0.637987220608556
-9.672766,0.667506,-0.208445,-0.054894,0.017074,-0.010027,0.517654,-0.58283,-0.031642,2.43494465639056,1.48534352510739,-0.637521252998444
-9.680403,0.675097,-0.223329,-0.055846,0.019311,-0.009361,0.517654,-0.58283,-0.031642,2.43522036581961,1.48528603401039,-0.637089807971778
-9.687874,0.659867,-0.230943,-0.059143,0.013916,-0.012973,0.517654,-0.58283,-0.031642,2.4355448222535,1.48525943521506,-0.636618988350444
-9.672526,0.652421,-0.239023,-0.049451,0.017328,-0.011294,0.517654,-0.58283,-0.031642,2.43592053896422,1.4852235861825,-0.636121046335444
-9.679867,0.644983,-0.299666,-0.043911,0.006818,-0.008172,0.510305,-0.585929,-0.045278,2.43604194396444,1.485202694609,-0.635892251317056
-9.656319,0.576873,-0.323974,-0.034948,0.006714,-0.010401,0.510305,-0.585929,-0.045278,2.43614987503422,1.48517129616228,-0.635590745943444
-9.679258,0.599619,-0.361034,-0.019806,0.004665,-0.009726,0.510305,-0.585929,-0.045278,2.43632517575622,1.48515700192778,-0.635368321371444
-9.656557,0.637932,-0.399027,-0.009787,0.000773,-0.007803,0.510305,-0.585929,-0.045278,2.43640935291494,1.48514700119961,-0.635262502148278
-9.633581,0.630548,-0.407297,0.000709,0.000945,-0.013562,0.520125,-0.588179,-0.031601,2.43665069684006,1.4851459889095,-0.635025277196722
-9.694936,0.675695,-0.42031,0.02355,0.002303,-0.014109,0.520125,-0.588179,-0.031601,2.43690692841111,1.48512860544483,-0.634829591046278
-9.68752,0.690869,-0.397514,0.033656,0.005427,-0.008245,0.520125,-0.588179,-0.031601,2.437197141514,1.48511045403594,-0.634625981107722
-9.710653,0.713421,-0.381439,0.049471,0.005924,-0.006252,0.520125,-0.588179,-0.031601,2.43749194482894,1.48508811384039,-0.6344574522575
-9.73364,0.705471,-0.335428,0.058423,0.004545,-0.009133,0.514724,-0.590718,-0.031979,2.43784692704567,1.48507305166167,-0.634250979981389
-9.703286,0.697899,-0.275572,0.064281,0.000068,-0.006267,0.514724,-0.590718,-0.031979,2.43798805424978,1.48504729062367,-0.634270684732
-9.710804,0.67496,-0.252929,0.068207,-0.002805,-0.003388,0.514724,-0.590718,-0.031979,2.43810164018156,1.48503695828322,-0.634331055619833
-9.710732,0.636722,-0.185146,0.066515,-0.006628,-0.0073,0.514724,-0.590718,-0.031979,2.43822583770622,1.48504022204617,-0.634376521408444
-9.695089,0.591259,-0.18617,0.059825,-0.00749,-0.004116,0.515896,-0.586282,-0.0502,2.43824648493383,1.48503999515356,-0.634509148866278
-9.702311,0.553292,-0.209286,0.046816,-0.006778,-0.01027,0.515896,-0.586282,-0.0502,2.43829910656633,1.48503437519811,-0.6344495982825
-9.687,0.553471,-0.22485,0.035163,-0.013992,-0.013287,0.515896,-0.586282,-0.0502,2.43833921419867,1.48506137541883,-0.634500771292944
-9.694554,0.538158,-0.209691,0.022638,-0.011955,-0.012019,0.515896,-0.586282,-0.0502,2.43835820336489,1.48508242407183,-0.634541734135889
-9.702108,0.545833,-0.247348,0.000698,-0.013668,-0.014365,0.514583,-0.590595,-0.029359,2.43834216380261,1.48511054130233,-0.634562782788889
-9.663681,0.538766,-0.309136,-0.011942,-0.013258,-0.01827,0.514583,-0.590595,-0.029359,2.43830840916339,1.48512967009478,-0.634594128875778
-9.671262,0.546413,-0.339202,-0.027001,-0.011183,-0.015078,0.514583,-0.590595,-0.029359,2.43828571990228,1.48515419195006,-0.634552380635333
-9.671289,0.569373,-0.384426,-0.041957,-0.01268,-0.021904,0.514583,-0.590595,-0.029359,2.43834909275389,1.48519262406772,-0.634386696669389
-9.66365,0.584769,-0.422357,-0.055226,-0.005274,-0.025087,0.52064,-0.585899,-0.039402,2.43858973854789,1.48522206774733,-0.634009810589056
-9.656317,0.622848,-0.429604,-0.061615,-0.010275,-0.022909,0.52064,-0.585899,-0.039402,2.43858848191189,1.48524336074622,-0.633815066915611
-9.641364,0.668641,-0.452116,-0.065989,-0.006057,-0.01676,0.52064,-0.585899,-0.039402,2.43860247944067,1.48526083147728,-0.633638649183833
-9.610704,0.661375,-0.47576,-0.078228,-0.004352,-0.017107,0.52064,-0.585899,-0.039402,2.43862576211322,1.48527561440356,-0.633422211086111
-9.626671,0.721839,-0.421386,-0.085399,-0.001774,-0.021284,0.516574,-0.584618,-0.013362,2.43877271871211,1.48529221247072,-0.633063650947444
-9.619154,0.72179,-0.391214,-0.087253,-0.009349,-0.017832,0.516574,-0.584618,-0.013362,2.43861705292761,1.48530291133,-0.633119414169944
-9.611249,0.699141,-0.414498,-0.087905,-0.007758,-0.01814,0.516574,-0.584618,-0.013362,2.43857500798144,1.48532586239028,-0.632944253074167
-9.603631,0.683869,-0.376949,-0.089912,-0.008082,-0.021693,0.516574,-0.584618,-0.013362,2.43860097845878,1.48535516644367,-0.632695805665
-9.634309,0.706442,-0.383455,-0.087904,-0.010616,-0.01817,0.517845,-0.585723,-0.036941,2.43850575337522,1.48538359783317,-0.632574051599222
-9.61137,0.683696,-0.346394,-0.091655,-0.012876,-0.027867,0.517845,-0.585723,-0.036941,2.43849025486455,1.48541794588383,-0.632329583537389
-9.619082,0.683551,-0.323431,-0.093467,-0.016309,-0.022437,0.517845,-0.585723,-0.036941,2.43836874514467,1.48546414471011,-0.632220238752111
-9.63418,0.691247,-0.383669,-0.098913,-0.018154,-0.021187,0.517845,-0.585723,-0.036941,2.43817082497467,1.48551184451828,-0.632173917752889
-9.626533,0.69899,-0.406525,-0.094686,-0.016592,-0.019225,0.514908,-0.585423,-0.03186,2.43796916980322,1.48555338331939,-0.632141943348
-9.634243,0.721832,-0.436377,-0.083862,-0.016741,-0.024661,0.514908,-0.585423,-0.03186,2.43782926432856,1.48558982576339,-0.632077802552167
-9.634095,0.714318,-0.459256,-0.065088,-0.02673,-0.019879,0.514908,-0.585423,-0.03186,2.43752391923383,1.48565174999294,-0.632224165739611
-9.63415,0.73725,-0.49689,-0.049288,-0.021792,-0.018483,0.514908,-0.585423,-0.03186,2.43732027438872,1.48570199797967,-0.632308098552445
-9.603471,0.737664,-0.543199,-0.022488,-0.025514,-0.014572,0.531491,-0.583591,-0.041327,2.43702540126067,1.48575301391061,-0.632550838739778
-9.59539,0.707529,-0.596953,-0.003338,-0.027664,-0.021938,0.531491,-0.583591,-0.041327,2.43681576994128,1.48580610678161,-0.632704427584222
-9.618025,0.684605,-0.611883,0.013737,-0.021474,-0.021168,0.531491,-0.583591,-0.041327,2.43683526525256,1.48586010722306,-0.632722544086555
-9.648113,0.654133,-0.657092,0.015044,-0.031327,-0.020306,0.531491,-0.583591,-0.041327,2.43665116807856,1.48593145622261,-0.632948267328056
-9.678598,0.630925,-0.611105,0.015396,-0.022746,-0.018922,0.515,-0.582776,-0.031801,2.43660013469433,1.48598423493461,-0.633041328205167
-9.678755,0.646093,-0.6033,0.008937,-0.023326,-0.019915,0.515,-0.582776,-0.031801,2.43646000232706,1.48602554684311,-0.6332158958895
-9.663647,0.653732,-0.580802,0.001947,-0.025447,-0.015777,0.515,-0.582776,-0.031801,2.43625307626572,1.48607836046167,-0.633431670762667
-9.663776,0.668927,-0.580588,-0.000104,-0.023882,-0.021239,0.515,-0.582776,-0.031801,2.43619314170983,1.48613705583483,-0.633494764361833
-9.664486,0.729515,-0.526596,-0.001711,-0.019737,-0.021196,0.52297,-0.591126,-0.036741,2.43620736613122,1.48618777506006,-0.633479422930667
-9.610952,0.7071,-0.513072,-0.004524,-0.02444,-0.017398,0.52297,-0.591126,-0.036741,2.43595411907067,1.48622725437439,-0.633710085449778
-9.641621,0.72202,-0.504504,-0.006749,-0.02695,-0.016143,0.52297,-0.591126,-0.036741,2.43570403105339,1.48628352374194,-0.633947345307889
-9.648752,0.653495,-0.482503,-0.010031,-0.025988,-0.019043,0.52297,-0.591126,-0.036741,2.43552904449039,1.48634263799378,-0.634101021418722
-9.679319,0.676179,-0.519372,-0.010955,-0.028825,-0.017143,0.507996,-0.581195,-0.00068,2.435254382258,1.48640409098483,-0.634352383525278
-9.663822,0.661218,-0.550332,-0.017058,-0.027173,-0.016504,0.507996,-0.581195,-0.00068,2.43489641553078,1.48644725294078,-0.634671377083222
-9.663518,0.638536,-0.581016,-0.027506,-0.017281,-0.023193,0.507996,-0.581195,-0.00068,2.43493750054667,1.4864965584505,-0.634564353583889
-9.632821,0.623644,-0.597175,-0.032609,-0.024517,-0.021038,0.507996,-0.581195,-0.00068,2.43477830920005,1.48655610903428,-0.634645528778833
-9.66336,0.646356,-0.641636,-0.036865,-0.024822,-0.024273,0.517443,-0.579445,-0.073602,2.43467531740789,1.48662150646611,-0.634659613574
-9.655859,0.684601,-0.694428,-0.037076,-0.022558,-0.019097,0.517443,-0.579445,-0.073602,2.43441348333467,1.48666011311656,-0.634831912332222
-9.655832,0.684629,-0.702019,-0.040058,-0.02637,-0.023012,0.517443,-0.579445,-0.073602,2.43424390728778,1.48672640066556,-0.634904797220222
-9.678752,0.692068,-0.70893,-0.03576,-0.019386,-0.017768,0.517443,-0.579445,-0.073602,2.43410133146161,1.48677088907061,-0.634961380746778
-9.655952,0.692171,-0.68673,-0.028798,-0.024575,-0.023276,0.522723,-0.577274,-0.023346,2.43400018971689,1.48683419210911,-0.634993843843444
-9.648416,0.699803,-0.679223,-0.024269,-0.020165,-0.022246,0.522723,-0.577274,-0.023346,2.43388862836533,1.48687316527839,-0.635094549256222
-9.679114,0.691708,-0.610249,-0.035576,-0.019435,-0.024206,0.522723,-0.577274,-0.023346,2.43389074021194,1.4869282129165,-0.635006410203444
-9.686834,0.699216,-0.60236,-0.041936,-0.015218,-0.020639,0.522723,-0.577274,-0.023346,2.43387792950606,1.48696945501189,-0.634917276313833
-9.671311,0.661295,-0.588095,-0.047065,-0.01516,-0.019693,0.529049,-0.58052,-0.091305,2.43383204483878,1.48700903904589,-0.634848458039556
-9.679244,0.683916,-0.55722,-0.056812,-0.017003,-0.023929,0.529049,-0.58052,-0.091305,2.43373638342328,1.48704497534483,-0.634804493232833
-9.725446,0.721422,-0.525176,-0.071556,-0.022238,-0.021134,0.529049,-0.58052,-0.091305,2.43352472752367,1.48710035459522,-0.634840586611278
-9.695174,0.736754,-0.495362,-0.076439,-0.019033,-0.023692,0.529049,-0.58052,-0.091305,2.43342081070778,1.48715379653178,-0.634756322186167
-9.725685,0.759494,-0.547414,-0.077708,-0.024732,-0.02279,0.518777,-0.575624,-0.047184,2.43318262582594,1.48721659342522,-0.634803620568944
-9.725417,0.744437,-0.585582,-0.083083,-0.024329,-0.018298,0.518777,-0.575624,-0.047184,2.43274800430272,1.48725762608128,-0.634959705232111
-9.740626,0.752022,-0.615456,-0.079312,-0.024082,-0.022467,0.518777,-0.575624,-0.047184,2.43251056991183,1.48731866019367,-0.635002221416778
-9.79404,0.766895,-0.644269,-0.090152,-0.024896,-0.01768,0.518777,-0.575624,-0.047184,2.43212134436411,1.48737344603261,-0.635169842696556
-9.808474,0.706294,-0.728243,-0.100903,-0.028333,-0.023551,0.528463,-0.585939,-0.036305,2.43177110943894,1.48744432379367,-0.635271368413389
-9.77822,0.736933,-0.728578,-0.108551,-0.02569,-0.020007,0.528463,-0.585939,-0.036305,2.43128618756917,1.48749036554044,-0.635487771604556
-9.739978,0.745007,-0.774971,-0.115425,-0.019947,-0.025121,0.528463,-0.585939,-0.036305,2.43109832048717,1.487547891544,-0.635389945982611
-9.732505,0.783224,-0.820172,-0.112759,-0.020893,-0.020936,0.528463,-0.585939,-0.036305,2.43080342990583,1.48760037355028,-0.635406194984222
-9.702268,0.829169,-0.850658,-0.112739,-0.018345,-0.019942,0.520683,-0.580482,-0.036664,2.43053567917144,1.48764641529706,-0.635395251779055
-9.709628,0.814051,-0.888635,-0.102475,-0.018458,-0.021519,0.520683,-0.580482,-0.036664,2.43024068387044,1.48768119967967,-0.635437034926056
-9.717303,0.80628,-0.858188,-0.090606,-0.019222,-0.023418,0.520683,-0.580482,-0.036664,2.43008985264389,1.48773457180311,-0.635364307117556
-9.724783,0.798703,-0.880876,-0.077639,-0.013282,-0.019124,0.520683,-0.580482,-0.036664,2.42999021188105,1.487769687798,-0.635272729769056
-9.717275,0.806308,-0.865778,-0.068876,-0.009213,-0.015831,0.522921,-0.588355,-0.034062,2.42991741425944,1.48779173128783,-0.635176213142944
-9.694743,0.821467,-0.80541,-0.061269,-0.012502,-0.021314,0.522921,-0.588355,-0.034062,2.42983775749967,1.48781480452106,-0.635116714919
-9.679284,0.791144,-0.791039,-0.054697,-0.015374,-0.015209,0.522921,-0.588355,-0.034062,2.42966521439555,1.48784749451033,-0.635155845167778
-9.671933,0.813916,-0.768136,-0.045649,-0.015131,-0.013565,0.522921,-0.588355,-0.034062,2.42948258329689,1.48787704290961,-0.635227805032056
-9.679894,0.836509,-0.72967,-0.037055,-0.017471,-0.018067,0.528435,-0.577259,-0.078147,2.42937786363022,1.48791837227139,-0.635243146463222
-9.672072,0.813778,-0.730182,-0.031569,-0.019742,-0.017431,0.528435,-0.577259,-0.078147,2.42914090047783,1.48794882824111,-0.635404292576944
-9.679645,0.813771,-0.745172,-0.029861,-0.017183,-0.01289,0.528435,-0.577259,-0.078147,2.42894165385872,1.48798115171156,-0.635532521808778
-9.694606,0.775631,-0.737735,-0.032514,-0.020044,-0.016472,0.528435,-0.577259,-0.078147,2.42876094262061,1.48802473254617,-0.635635513600944
-9.7018,0.760679,-0.821257,-0.039905,-0.017747,-0.015829,0.522681,-0.582692,-0.026084,2.42859222178433,1.48806292031794,-0.635707927250444
-9.709105,0.722628,-0.821601,-0.043474,-0.013595,-0.017085,0.522681,-0.582692,-0.026084,2.42843966268328,1.48808100191372,-0.635790202001889
-9.716732,0.745553,-0.874225,-0.055602,-0.015665,-0.012319,0.522681,-0.582692,-0.026084,2.42819248936339,1.48810950311633,-0.6359019553395
-9.732237,0.768167,-0.858341,-0.061919,-0.005082,-0.006749,0.522681,-0.582692,-0.026084,2.42801137669989,1.48810887479833,-0.635931573551889
-9.732044,0.745374,-0.858661,-0.06726,-0.012084,-0.015537,0.520232,-0.571433,-0.070646,2.4278790284945,1.48813587501906,-0.635898866109333
-9.762481,0.752863,-0.895745,-0.075868,-0.011656,-0.011697,0.520232,-0.571433,-0.070646,2.42755949388494,1.48814159969417,-0.636031755366333
-9.762748,0.790907,-0.910392,-0.078037,-0.007795,-0.007797,0.520232,-0.571433,-0.070646,2.42730832376444,1.48814783051433,-0.636091236137
-9.724433,0.760742,-0.889002,-0.084523,-0.000443,-0.009995,0.520232,-0.571433,-0.070646,2.42723639880672,1.48814376390061,-0.635954594425278
-9.754992,0.752786,-0.857982,-0.085901,-0.003003,-0.014211,0.520443,-0.574818,-0.028686,2.42720653624844,1.48815142588956,-0.635772277485611
-9.739856,0.760452,-0.843075,-0.090113,-0.002019,-0.015503,0.520443,-0.574818,-0.028686,2.42712935785411,1.48814507289644,-0.635642599631722
-9.747475,0.752737,-0.827809,-0.095298,-0.002934,-0.01714,0.520443,-0.574818,-0.028686,2.42714415823367,1.48815741236383,-0.635391918203
-9.755352,0.775413,-0.812116,-0.097137,0.00315,-0.012893,0.520443,-0.574818,-0.028686,2.4271778256065,1.48815132116989,-0.635117674849278
-9.747688,0.767849,-0.804823,-0.102869,-0.005028,-0.010105,0.523098,-0.574872,-0.028527,2.426971894382,1.48815608591472,-0.635069486349333
-9.778219,0.75992,-0.781393,-0.100985,0.000652,-0.012288,0.523098,-0.574872,-0.028527,2.42684684164672,1.48813943548772,-0.634955307006111
-9.778346,0.798103,-0.833994,-0.107046,0.001999,-0.009717,0.523098,-0.574872,-0.028527,2.42676057009467,1.48813030742344,-0.634776567988389
-9.793695,0.80555,-0.825915,-0.096641,-0.003463,-0.004912,0.523098,-0.574872,-0.028527,2.42648278372556,1.48812360536478,-0.634816082209278
-9.755656,0.821083,-0.834246,-0.093184,0.003779,-0.008685,0.523436,-0.586076,-0.041863,2.42644288553256,1.48810943330322,-0.634625579682333
-9.786067,0.805611,-0.826106,-0.092519,-0.000032,-0.007758,0.523436,-0.586076,-0.041863,2.42622087983922,1.48808677894867,-0.634593675090555
-9.755269,0.775496,-0.834888,-0.082281,0.002706,-0.010594,0.523436,-0.586076,-0.041863,2.42623040932889,1.48807775560406,-0.634380919634444
-9.801102,0.782722,-0.833636,-0.075221,-0.004041,-0.011607,0.523436,-0.586076,-0.041863,2.42614719210044,1.48808313121361,-0.634278940132389
-9.785588,0.752455,-0.834445,-0.068461,0.000023,-0.011542,0.517605,-0.580059,-0.028963,2.42615977591372,1.48808072266128,-0.634097792562333
-9.808517,0.767548,-0.856431,-0.065081,0.003857,-0.004082,0.517605,-0.580059,-0.028963,2.42600124779167,1.48804448965661,-0.634112156609944
-9.793381,0.775214,-0.841524,-0.061365,0.000276,-0.01087,0.517605,-0.580059,-0.028963,2.42602121434144,1.48804051030928,-0.633941411193444
-9.800889,0.76761,-0.856622,-0.047482,0.002697,-0.008865,0.517605,-0.580059,-0.028963,2.426078112027,1.48802867698694,-0.633768414304111
-9.816495,0.805447,-0.848115,-0.042996,0.002646,-0.009813,0.517838,-0.577535,-0.031524,2.42616675722483,1.488018501726,-0.633574822547
-9.81622,0.759749,-0.818393,-0.039427,-0.002777,-0.008575,0.517838,-0.577535,-0.031524,2.42604303093867,1.488002165458,-0.633607041297778
-9.816284,0.767347,-0.818286,-0.03753,0.00005,-0.010147,0.517838,-0.577535,-0.031524,2.42610156923233,1.48799743561972,-0.633457361987556
-9.801462,0.805349,-0.78777,-0.034962,-0.002833,-0.01049,0.517838,-0.577535,-0.031524,2.42611734699544,1.48799869225572,-0.633357040546889
-9.801572,0.828225,-0.810221,-0.034598,-0.001235,-0.008539,0.512339,-0.574534,-0.026543,2.42612127398294,1.48799373552483,-0.633269529812111
-9.832047,0.820352,-0.801974,-0.028383,-0.000308,-0.004,0.512339,-0.574534,-0.026543,2.42597032058344,1.48796518196239,-0.633367233261111
-9.80874,0.767326,-0.795704,-0.030322,-0.001243,-0.004342,0.512339,-0.574534,-0.026543,2.42588935482783,1.48795336609333,-0.633375628287722
-9.801526,0.812947,-0.787663,-0.026192,0.005684,-0.006826,0.512339,-0.574534,-0.026543,2.42601196410422,1.48793254433294,-0.633190099944944
-9.831927,0.81281,-0.817262,-0.03473,0.004231,0.000213,0.525992,-0.58059,-0.036346,2.42592462790222,1.48790292612056,-0.633193852399667
-9.847035,0.805171,-0.83976,-0.030672,0.007004,-0.005537,0.525992,-0.58059,-0.036346,2.4259463223265,1.48786318500706,-0.633085450091389
-9.831936,0.820463,-0.832337,-0.025144,0.003161,-0.002985,0.525992,-0.58059,-0.036346,2.4259343842845,1.48784082735822,-0.633037558297167
-9.846879,0.790004,-0.847565,-0.017355,0.00533,-0.000039,0.525992,-0.58059,-0.036346,2.42591785603044,1.48780953363117,-0.633013821839389
-9.80862,0.759784,-0.810993,-0.012925,0.005262,-0.003569,0.509267,-0.582299,-0.02426,2.42599112489056,1.48778417401856,-0.632911109299667
-9.808271,0.698835,-0.766304,-0.00741,0.002367,-0.001653,0.509267,-0.582299,-0.02426,2.42589265349733,1.48774664947133,-0.633014188358222
-9.769587,0.63839,-0.775705,-0.009635,0.003671,-0.000363,0.509267,-0.582299,-0.02426,2.42587006895589,1.48771902093261,-0.633015881326167
-9.799924,0.630656,-0.805412,-0.016207,0.008448,-0.006449,0.509267,-0.582299,-0.02426,2.42606298003517,1.48769236977744,-0.6327848697415
-9.777363,0.645843,-0.752635,-0.019949,0.004718,-0.00103,0.534146,-0.583645,-0.041168,2.42605029150222,1.48766386857483,-0.63275078349
-9.785258,0.683825,-0.767091,-0.022259,0.007578,-0.003579,0.534146,-0.583645,-0.041168,2.42605954173944,1.48761985140828,-0.632663325115056
-9.777703,0.699138,-0.782249,-0.01972,0.002777,-0.005233,0.534146,-0.583645,-0.041168,2.42610430939694,1.48760190943872,-0.632572131738667
-9.800937,0.736914,-0.773551,-0.021426,0.010379,-0.009659,0.534146,-0.583645,-0.041168,2.42639438287361,1.48757686398511,-0.632230518732722
